"Time (s)","Linear Acceleration x (m/s^2)","Linear Acceleration y (m/s^2)","Linear Acceleration z (m/s^2)","Absolute acceleration (m/s^2)"
2.971125068E-3,-4.703368708E-1,8.947117031E-2,-7.645193535E-1,9.020597011E-1
1.291812514E-2,1.609181887E-1,2.209545851E-2,-7.052934909E-1,7.237553323E-1
2.286412497E-2,6.943920151E-1,3.321218491E-2,-3.584360737E-1,7.821507136E-1
3.281012503E-2,7.695625770E-1,3.184019423E-1,1.148036291E-1,8.407057928E-1
4.275712511E-2,7.302051877E-1,3.319382465E-1,5.030804014E-1,9.468223202E-1
5.270312517E-2,7.218013501E-1,-3.359985530E-2,9.145507210E-1,1.165559591E0
6.265012501E-2,4.762228974E-1,-2.776468492E-1,1.185940465E0,1.307796164E0
7.259612507E-2,2.202372048E-1,-4.742033422E-1,9.850728196E-1,1.115231678E0
8.254212514E-2,-1.607608255E-1,-5.372638088E-1,5.457071882E-1,7.824913920E-1
9.248912497E-2,-4.029600992E-1,-4.774046928E-1,3.138107085E-1,6.991203352E-1
1.024351250E-1,-4.034103714E-1,-3.790293825E-1,1.770916969E-1,5.811752486E-1
1.123821251E-1,-9.351261958E-2,-2.361585152E-1,1.029203328E-1,2.740584777E-1
1.223281252E-1,1.877429849E-1,-1.623181218E-1,6.579813302E-2,2.567566851E-1
1.322741250E-1,2.622260239E-1,-5.475975931E-2,1.698963325E-2,2.684208756E-1
1.422211251E-1,2.472081448E-1,6.736226320E-2,-1.573255498E-2,2.567042163E-1
1.521671251E-1,1.994807952E-1,4.565798342E-2,-5.295417566E-2,2.113797148E-1
1.621141250E-1,1.362352277E-1,-1.103252649E-2,-5.712261915E-2,1.481375966E-1
1.720601250E-1,1.165006556E-1,-5.963399827E-2,1.119864589E-1,1.722486095E-1
1.820061251E-1,3.342981096E-2,-1.560265177E-1,3.040557804E-1,3.433827953E-1
1.919531249E-1,-2.992122576E-2,-1.756480193E-1,4.641367757E-1,4.971624011E-1
2.018991250E-1,-3.032384310E-2,-3.736663163E-2,4.753125590E-1,4.777424299E-1
2.118461251E-1,1.549614474E-2,7.352522850E-2,3.161069101E-1,3.249148632E-1
2.217921251E-1,3.305434663E-2,1.769683206E-1,1.217659271E-1,2.173414763E-1
2.317381250E-1,1.224918224E-1,3.425959665E-1,1.105182048E-1,3.802505968E-1
2.416851250E-1,2.244833797E-1,3.276148152E-1,8.052666625E-2,4.052268487E-1
2.516311251E-1,1.410530045E-1,2.038006085E-1,1.652598560E-2,2.484023879E-1
2.615781249E-1,-1.209814500E-2,1.510183775E-1,7.851622906E-3,1.517055156E-1
2.715241250E-1,-1.124630435E-1,9.080959797E-2,3.211932203E-2,1.480742047E-1
2.814701251E-1,-1.530293446E-1,1.094774187E-2,4.059254050E-2,1.586996777E-1
2.914171251E-1,-2.029132570E-1,2.051787972E-3,2.007970400E-3,2.029335646E-1
3.013631250E-1,-2.097352766E-1,6.627935886E-2,2.128565568E-2,2.209862412E-1
3.113101250E-1,-6.905320488E-2,1.490314937E-1,5.930487312E-2,1.746304647E-1
3.212561251E-1,-1.012021467E-2,7.063144147E-2,1.416066810E-1,1.585675609E-1
3.312021249E-1,-8.013561543E-2,-1.711596966E-2,2.391874095E-1,2.528345113E-1
3.411491250E-1,-2.409807871E-1,-9.636913061E-2,2.601198202E-1,3.674521329E-1
3.510951251E-1,-3.941322289E-1,-1.518855196E-1,1.748399341E-1,4.571415836E-1
3.610421252E-1,-3.018477073E-1,-1.558896929E-1,-2.242816508E-2,3.404653541E-1
3.709881250E-1,-1.858455634E-1,-1.130535758E-1,-2.618721942E-1,3.404360888E-1
3.809341250E-1,-1.533126240E-1,-3.876119256E-3,-3.640909159E-1,3.950721200E-1
3.908811251E-1,-1.424469624E-1,1.237709373E-1,-3.731675122E-1,4.181678780E-1
4.008271249E-1,-9.127076056E-2,1.700867325E-1,-3.466007245E-1,3.967264933E-1
4.107741250E-1,2.784780309E-2,1.610030830E-1,-2.884858328E-1,3.315442182E-1
4.207201251E-1,8.325428272E-2,2.174333918E-1,-1.829629226E-1,2.961148198E-1
4.306661251E-1,1.033847844E-1,1.453109103E-1,-7.678212762E-2,1.941627396E-1
4.406131250E-1,-1.457239430E-2,4.452888608E-2,5.310909033E-2,7.082197291E-2
4.505591250E-1,-6.906489931E-2,2.927583933E-2,2.523388938E-1,2.632526399E-1
4.605061251E-1,-3.401358236E-2,5.901594758E-3,2.673785903E-1,2.695979658E-1
4.704521250E-1,3.438272439E-3,-1.404501200E-3,1.281767960E-1,1.282305946E-1
4.803981250E-1,5.130602829E-2,-4.502356052E-5,-8.837892869E-2,1.021917101E-1
4.903451251E-1,-6.898230739E-2,-8.884376407E-2,-2.088467739E-1,2.372103457E-1
5.002911252E-1,-2.641144187E-1,-1.514779687E-1,-1.515925741E-1,3.401210221E-1
5.102381250E-1,-2.933348008E-1,-1.435982609E-1,-7.378564887E-3,3.266805919E-1
5.201841251E-1,-1.557341204E-1,-1.662234771E-1,3.797415733E-2,2.309229249E-1
5.301301251E-1,-2.511874309E-2,-1.607569152E-1,-9.387083463E-3,1.629780794E-1
5.400771250E-1,-2.065358812E-1,-1.400723898E-1,-1.022498947E-2,2.497636783E-1
5.500231250E-1,-4.141009089E-1,-1.890738112E-1,-3.909919817E-2,4.568995689E-1
5.599701251E-1,-5.342229643E-1,-3.240947914E-1,-1.383983503E-1,6.399888380E-1
5.699161252E-1,-5.013525492E-1,-3.991806418E-1,-1.627572660E-1,6.612030633E-1
5.798621250E-1,-3.151836713E-1,-3.717653865E-1,-1.002978931E-1,4.976041766E-1
5.898091251E-1,-3.873105199E-2,-2.188507569E-1,-1.344269397E-1,2.597428542E-1
5.997547500E-1,1.421691740E-1,-5.278106153E-2,-2.287775932E-1,2.744760493E-1
6.097017501E-1,1.988143588E-1,1.422510624E-2,-4.170725369E-1,4.622542634E-1
6.196477502E-1,1.878782018E-1,3.515989244E-2,-6.288253587E-1,6.572334201E-1
6.295937500E-1,6.475973147E-2,-1.320593655E-2,-6.966793728E-1,6.998073792E-1
6.395407501E-1,-8.014340867E-2,-8.528631806E-2,-5.603415996E-1,5.724329046E-1
6.494867501E-1,-1.456685772E-1,-5.317107081E-2,-4.525406142E-1,4.783717223E-1
6.594337500E-1,-1.304190022E-1,-3.830803335E-2,-3.814752728E-1,4.049691412E-1
6.693797500E-1,-9.106413458E-2,-3.066162944E-2,-2.422138917E-1,2.605770164E-1
6.793257501E-1,-9.101617827E-2,-7.462918282E-2,-8.515650988E-2,1.452759127E-1
6.892727502E-1,-9.316606242E-2,6.336627603E-3,1.516598171E-1,1.781032514E-1
6.992187500E-1,5.775472144E-2,3.235697114E-1,5.344091982E-1,6.273963318E-1
7.091657501E-1,4.865780970E-1,6.348532534E-1,1.031065848E0,1.304949686E0
7.191117501E-1,8.113139626E-1,7.205547237E-1,1.384673876E0,1.759190495E0
7.290577500E-1,8.075568341E-1,6.433884341E-1,1.300166407E0,1.660279917E0
7.390047500E-1,6.300989554E-1,5.704069966E-1,7.706840730E-1,1.147319823E0
7.489507501E-1,5.379189894E-1,5.304009318E-1,-6.202024698E-2,7.579765819E-1
7.588977502E-1,6.613107347E-1,4.932418764E-1,-7.561122268E-1,1.119073338E0
7.688437500E-1,7.253535336E-1,3.453330481E-1,-1.077457073E0,1.343988990E0
7.787897501E-1,6.949725705E-1,2.364912218E-1,-1.146399838E0,1.361303626E0
7.887367501E-1,4.943576713E-1,3.001024961E-2,-9.607331997E-1,1.080878533E0
7.986827500E-1,2.102407501E-1,-2.004869914E-1,-7.437512130E-1,7.984748421E-1
8.086297500E-1,-1.526863689E-1,-3.972738647E-1,-4.827589881E-1,6.435805245E-1
8.185757501E-1,-4.146782483E-1,-5.693983519E-1,-1.472428487E-1,7.196200312E-1
8.285217502E-1,-4.753716524E-1,-6.237990922E-1,-1.166537795E-3,7.842862208E-1
8.384687500E-1,-4.781671697E-1,-6.232646567E-1,1.120204093E-2,7.856386957E-1
8.484147501E-1,-3.502243171E-1,-5.674804652E-1,-1.155941910E-1,6.767962527E-1
8.583617501E-1,-1.367659721E-1,-4.145535564E-1,-4.641092938E-1,6.371475645E-1
8.683077500E-1,7.136322965E-2,-3.727664298E-1,-7.174568689E-1,8.116599537E-1
8.782537500E-1,1.504997569E-1,-3.853741962E-1,-7.728773636E-1,8.766429530E-1
8.882007501E-1,9.210530441E-2,-3.496746057E-1,-7.955914575E-1,8.739115998E-1
8.981467502E-1,6.998977351E-2,-2.246628892E-1,-8.020473683E-1,8.358540322E-1
9.080937500E-1,1.570900532E-1,-1.689231366E-1,-5.465532804E-1,5.932392428E-1
9.180397501E-1,1.515426992E-1,-3.113583863E-1,-2.953978630E-1,4.551583591E-1
9.279867501E-1,7.219880590E-2,-4.594204116E-1,-4.000121158E-1,6.134243841E-1
9.379327500E-1,-1.251051897E-1,-6.461290240E-1,-6.949012345E-1,9.570902517E-1
9.478787500E-1,-5.702270120E-1,-8.404857945E-1,-8.099229831E-1,1.299057525E0
9.578257501E-1,-8.618430421E-1,-8.420733136E-1,-6.902936286E-1,1.388656253E0
9.677717499E-1,-9.006178294E-1,-7.847431183E-1,-3.919820980E-1,1.257212870E0
9.777177500E-1,-8.134339437E-1,-6.652289540E-1,-1.860747925E-1,1.067158925E0
9.876647501E-1,-6.673726894E-1,-4.606845796E-1,-3.601656801E-1,8.873195059E-1
9.976107501E-1,-7.794655676E-1,-2.559478319E-1,-9.886951697E-1,1.284754452E0
1.007557750E0,-9.110147636E-1,1.119624853E-2,-1.567128639E0,1.812723208E0
1.017503750E0,-1.167738886E0,1.195328754E-1,-1.844346303E0,2.186210305E0
1.027449750E0,-1.525525700E0,2.561489761E-2,-1.850895769E0,2.398687127E0
1.037396750E0,-1.886761128E0,-5.253957152E-2,-1.332368193E0,2.310375070E0
1.047342750E0,-2.528587186E0,-2.317508841E-1,-5.210149447E-1,2.592087615E0
1.057289750E0,-3.049556267E0,-3.398442668E-1,4.212456948E-1,3.097214149E0
1.067235750E0,-3.861337495E0,-5.170546621E-1,1.170834183E0,4.067938723E0
1.077182750E0,-5.645153421E0,-9.621043718E-1,9.596690065E-1,5.806407372E0
1.087128750E0,-6.348801506E0,-9.074223804E-1,-4.225724280E-1,6.427228282E0
1.097074750E0,-5.482911898E0,2.710909510E-1,-1.789884751E0,5.774036769E0
1.107021750E0,-4.594169325E0,1.793253917E0,-2.188062596E0,5.395347006E0
1.116967750E0,-4.402894914E0,2.896436400E0,-1.363019298E0,5.443587884E0
1.126914750E0,-5.631834049E0,2.632410055E0,1.228744422E0,6.336951184E0
1.136860750E0,-7.992432775E0,1.662647000E0,3.740679030E0,8.979758144E0
1.146806750E0,-1.082852533E1,7.384010106E-1,3.568158102E0,1.142514547E1
1.156753750E0,-1.312307215E1,6.554705358E-1,1.538739238E0,1.322922457E1
1.166699750E0,-1.438185138E1,1.368708054E0,-3.481554991E-1,1.445102844E1
1.176646750E0,-1.501732561E1,2.487157032E0,-1.563421504E0,1.530197063E1
1.186592750E0,-1.649835283E1,3.205455900E0,-6.885622680E-1,1.682096048E1
1.196538750E0,-2.001718265E1,3.338322766E0,8.627391279E-1,2.031197477E1
1.206485750E0,-2.610086906E1,3.561430296E0,2.988338258E0,2.651168265E1
1.216431750E0,-3.298545327E1,5.029403606E0,4.513984995E0,3.367062650E1
1.226378750E0,-4.035419396E1,7.737201812E0,4.051155657E0,4.128846236E1
1.236324750E0,-4.825700997E1,9.714470530E0,4.514082643E0,4.943163856E1
1.246270750E0,-5.421688042E1,1.103323518E1,9.681751850E0,5.616884118E1
1.256217750E0,-5.884816524E1,1.220855827E1,2.074666490E1,6.358128302E1
1.266163750E0,-5.924056954E1,1.113278636E1,3.773903845E1,7.111693916E1
1.276110750E0,-5.082827861E1,8.412133636E0,5.656369082E1,7.650966618E1
1.286056750E0,-3.799985234E1,4.759561036E0,7.562055718E1,8.476503328E1
1.296002750E0,-2.225131487E1,-7.024037969E-1,8.816788207E1,9.093508571E1
1.305949750E0,-4.745554031E0,-5.771266168E0,8.632987298E1,8.665260968E1
1.315895750E0,1.055275075E1,-8.061442199E0,7.486062029E1,7.602933558E1
1.325842750E0,2.144410207E1,-7.382083449E0,6.387603629E1,6.778268718E1
1.335788750E0,2.906549627E1,-5.410711648E0,5.679070312E1,6.402548583E1
1.345734750E0,3.957908237E1,-3.652668495E0,5.200377478E1,6.545409338E1
1.355681750E0,5.275524023E1,-2.601858353E0,4.598267697E1,7.003064771E1
1.365627750E0,6.299493105E1,-1.182196493E0,3.956375331E1,7.439791330E1
1.375574750E0,6.641791449E1,-1.365256442E0,2.597493640E1,7.132952131E1
1.385520750E0,6.050748809E1,-2.460386724E0,1.159319612E1,6.165721219E1
1.395466750E0,4.920567627E1,-6.058535196E0,6.719834236E0,5.003059662E1
1.405413750E0,4.066675804E1,-1.084043376E1,7.115610044E0,4.268409681E1
1.415359750E0,3.422756326E1,-1.354236663E1,4.453354046E0,3.707767715E1
1.425306750E0,2.851381381E1,-1.419415810E1,-1.241728603E0,3.187559556E1
1.435252750E0,2.386813315E1,-1.466183244E1,-4.459612906E0,2.836450701E1
1.445198750E0,1.966027094E1,-1.547651564E1,-3.317429495E0,2.523993123E1
1.455145750E0,1.566881302E1,-1.515784005E1,-2.620254278E0,2.195763077E1
1.465091750E0,1.493856712E1,-1.228457441E1,-3.013279556E0,1.957425375E1
1.475038750E0,1.543911334E1,-9.030125273E0,-3.715972205E0,1.826794549E1
1.484984750E0,1.521567953E1,-6.421253770E0,-3.629861430E0,1.690932576E1
1.494930750E0,1.483673786E1,-3.817300360E0,-2.346231533E0,1.549856041E1
1.504877750E0,1.389653482E1,-1.631314695E0,-1.246005403E0,1.404732704E1
1.514823750E0,1.218099683E1,1.565761560E-1,-7.226316547E-1,1.220341741E1
1.524770750E0,1.013454620E1,1.363272482E0,-2.169012952E-1,1.022812713E1
1.534716750E0,8.527227890E0,1.643912521E0,6.573229337E-1,8.709083609E0
1.544662750E0,7.217046956E0,1.901536750E0,1.902853543E0,7.702107529E0
1.554609750E0,5.788685609E0,1.445357450E0,3.893905317E0,7.124635980E0
1.564555750E0,4.342007565E0,7.529810429E-1,5.438978258E0,7.000178186E0
1.574502750E0,2.508501708E0,-2.290939093E-2,4.782634149E0,5.400619877E0
1.584448750E0,8.450349283E-1,-7.215592754E-1,2.548644598E0,2.780345501E0
1.594396125E0,1.978381662E-1,-7.446551925E-1,3.980129528E-1,8.672171621E-1
1.604342125E0,-2.589630948E-1,-8.577666557E-1,-9.386161065E-1,1.297623102E0
1.614288125E0,-7.259046337E-1,-1.133158818E0,-1.809950641E0,2.255417427E0
1.624235125E0,-1.436754441E0,-1.450562641E0,-1.992941594E0,2.853105588E0
1.634181125E0,-1.536867106E0,-1.720920936E0,-9.847377741E-1,2.508632666E0
1.644128125E0,-1.359269332E0,-1.515510004E0,-1.661813772E-1,2.042547414E0
1.654074125E0,-1.311706911E0,-1.042962593E0,2.357573962E-1,1.692314256E0
1.664020125E0,-7.731265280E-1,-6.612996250E-1,-2.784560124E-2,1.017751050E0
1.673967125E0,3.061828695E-2,2.440113258E-1,-1.123109794E0,1.149719364E0
1.683913125E0,4.110948918E-1,9.151336884E-1,-1.583892606E0,1.874882521E0
1.693860125E0,1.198617813E-1,7.846589184E-1,-5.715243995E-1,9.781086872E-1
1.703806125E0,-4.476080858E-1,7.335302800E-1,1.029997562E0,1.341385347E0
1.713752125E0,-9.896210032E-1,4.594584185E-1,2.382679567E0,2.620613228E0
1.723699125E0,-1.116991486E0,-7.829129398E-2,2.612884448E0,2.842703756E0
1.733645125E0,-8.800773648E-1,-2.768919736E-1,1.570640477E0,1.821569884E0
1.743592125E0,-4.723708979E-1,-4.168585289E-1,1.773583299E-1,6.544931439E-1
1.753538125E0,-1.441431483E-1,-2.907025123E-1,-1.015661359E0,1.066233180E0
1.763484125E0,-1.869842356E-1,8.064421356E-2,-1.708150032E0,1.720245077E0
1.773431125E0,-8.356701739E-2,1.814975739E-1,-1.777367032E0,1.788563217E0
1.783377125E0,-6.432090707E-1,-1.283241642E-1,-9.064108121E-1,1.118823293E0
1.793324125E0,-1.252990633E0,-7.181930333E-1,3.451044220E-1,1.484885121E0
1.803270125E0,-1.361252123E0,-1.037643381E0,9.067224687E-1,1.936971028E0
1.813216125E0,-1.142221491E0,-1.034719189E0,5.324784476E-1,1.630597140E0
1.823163125E0,-8.840146606E-1,-9.862638974E-1,-1.564726603E-1,1.333672407E0
1.833109125E0,-7.607618596E-1,-8.283358651E-1,-7.237268382E-1,1.337415212E0
1.843056125E0,-6.202358720E-1,-7.063816577E-1,-8.709357548E-1,1.281482217E0
1.853002125E0,-3.888032227E-1,-6.462395364E-1,-7.912580860E-1,1.093106968E0
1.862948125E0,-3.282670721E-1,-6.410144645E-1,-7.705063176E-1,1.054674737E0
1.872895125E0,1.798813304E-1,-3.514521593E-1,-6.234763259E-1,7.379692691E-1
1.882841125E0,4.400192039E-1,-9.098735332E-2,4.855527878E-3,4.493541748E-1
1.892788125E0,2.952640714E-1,1.980685830E-2,4.437165445E-1,5.333456247E-1
1.902734125E0,3.146255180E-2,2.441621840E-2,3.705176272E-1,3.726517891E-1
1.912680125E0,-2.900726210E-1,8.235569358E-2,-1.356682305E-1,3.306515605E-1
1.922627125E0,-4.627261350E-1,3.470135379E-1,-8.378568864E-1,1.018105119E0
1.932573125E0,-6.473225138E-1,3.095439953E-1,-9.995283061E-1,1.230406744E0
1.942520125E0,-9.110926046E-1,1.602721810E-2,-5.275083143E-1,1.052906277E0
1.952466125E0,-1.162240384E0,-7.859593391E-2,3.134812910E-2,1.165316582E0
1.962413125E0,-1.196971895E0,-1.043383008E-1,2.973958200E-1,1.237769151E0
1.972359125E0,-1.083850126E0,-8.285036802E-2,3.604357849E-1,1.145211436E0
1.982305125E0,-1.321220184E0,-1.042043996E-1,4.174157320E-1,1.389502510E0
1.992252125E0,-1.693245772E0,-9.414894283E-2,5.955874095E-1,1.797406362E0
2.002198125E0,-1.873572148E0,-3.619134128E-2,3.822850756E-1,1.912517787E0
2.012145125E0,-1.870768555E0,1.361167485E-1,9.647671938E-2,1.878193417E0
2.022091125E0,-1.913527342E0,2.297236544E-1,1.803527621E-1,1.935687724E0
2.032037125E0,-1.732489067E0,4.954766822E-1,2.898301077E-1,1.825107395E0
2.041984125E0,-1.120062298E0,7.788339221E-1,5.257815949E-1,1.462042446E0
2.051930125E0,-5.910461330E-1,8.233119375E-1,8.978230065E-1,1.353980882E0
2.061877125E0,-1.653349927E-1,8.805555940E-1,1.198354688E0,1.496251240E0
2.071823125E0,-1.995362341E-3,8.064164078E-1,8.685799116E-1,1.185218320E0
2.081769125E0,-3.323747411E-2,3.432982171E-1,-2.771061279E-2,3.460148459E-1
2.091716125E0,-4.194142006E-2,-1.285253084E-1,-9.221047390E-1,9.319629752E-1
2.101662125E0,1.291480734E-1,-2.722527927E-1,-1.579220096E0,1.607711703E0
2.111609125E0,5.357370643E-1,-2.983459926E-1,-2.135530626E0,2.221827083E0
2.121555125E0,1.151639821E0,6.776221275E-2,-2.677805498E0,2.915734604E0
2.131501125E0,1.467320907E0,4.388499069E-1,-2.631500228E0,3.044735347E0
2.141448125E0,1.318568618E0,4.402924150E-1,-1.468915297E0,2.022422498E0
2.151394125E0,9.135295779E-1,1.823255396E-1,9.241582811E-2,9.361194248E-1
2.161341125E0,4.896387855E-1,-2.550064301E-1,8.766572553E-1,1.036003071E0
2.171287125E0,2.404439944E-2,-7.849343222E-1,9.986026919E-1,1.270396536E0
2.181233125E0,1.689390794E-2,-1.128779254E0,5.085732393E-1,1.238173957E0
2.191180125E0,3.321718428E-1,-9.287816745E-1,-1.145481241E-1,9.930230636E-1
2.201126125E0,6.162991610E-1,-7.640965998E-1,-3.120945873E-1,1.030083153E0
2.211073125E0,7.057070352E-1,-9.674265075E-1,1.022145556E-1,1.201825396E0
2.221019125E0,5.080177903E-1,-1.328787358E0,1.388567537E-1,1.429349194E0
2.230965125E0,3.007306698E-1,-1.847716053E0,1.269211248E-4,1.872029264E0
2.240912125E0,7.883119298E-2,-2.333722000E0,-1.763801273E-1,2.341705080E0
2.250858125E0,-3.680606637E-1,-2.649816631E0,-1.034168966E0,2.868187979E0
2.260805125E0,-5.701363436E-1,-2.046262938E0,-2.299308212E0,3.130345942E0
2.270751125E0,-1.112779810E0,-8.876891971E-1,-2.774591535E0,3.118433774E0
2.280697125E0,-1.881406540E0,-1.646289414E-1,-1.479236217E0,2.398944152E0
2.290644125E0,-2.867783874E0,-3.123758018E-1,-2.312573791E-2,2.884839300E0
2.300590125E0,-4.312327976E0,-9.826158196E-1,8.240095103E-1,4.498966336E0
2.310537125E0,-5.754027407E0,-1.499434839E0,1.073779759E0,6.042362055E0
2.320483125E0,-7.004575512E0,-1.695496657E0,1.192302089E-2,7.206866807E0
2.330430125E0,-8.111592599E0,-8.938258499E-1,-1.043396457E0,8.227121933E0
2.340376125E0,-8.551404372E0,7.263212478E-1,-1.742788938E0,8.757361051E0
2.350322125E0,-8.524934027E0,2.264385132E0,-2.460352226E0,9.157252496E0
2.360269125E0,-9.154035375E0,3.264985818E0,-2.631826503E0,1.006891289E1
2.370215125E0,-1.060676616E1,3.328232810E0,-2.271329432E0,1.134634564E1
2.380162125E0,-1.311226766E1,2.496804938E0,-1.065696641E0,1.339034382E1
2.390108125E0,-1.684688079E1,1.784159158E0,1.183671087E0,1.698239364E1
2.400054125E0,-2.039335742E1,1.889314899E0,3.296714564E0,2.074432126E1
2.410001125E0,-2.255753823E1,3.558047097E0,4.035017341E0,2.319016160E1
2.419947125E0,-2.365944368E1,6.350562102E0,3.381459430E0,2.472919696E1
2.429894125E0,-2.475297592E1,9.317087322E0,2.425519778E0,2.655938778E1
2.439840125E0,-2.795095850E1,1.214253385E1,1.693213905E0,3.052153637E1
2.449786125E0,-3.378864552E1,1.381943226E1,1.610406806E0,3.654097268E1
2.459733125E0,-4.295906772E1,1.247925395E1,6.711102589E0,4.523551897E1
2.469679125E0,-5.243218858E1,8.906502855E0,1.668735238E1,5.573982348E1
2.479626125E0,-6.080047570E1,3.940029908E0,2.872556956E1,6.736007740E1
2.489572125E0,-6.568481398E1,-2.372996578E0,4.045927076E1,7.718211250E1
2.499518125E0,-6.477410312E1,-8.862189732E0,5.035905125E1,8.252428058E1
2.509465125E0,-6.055786770E1,-1.381162857E1,5.981655770E1,8.623245909E1
2.519411125E0,-5.260492468E1,-1.842325271E1,6.936834934E1,8.898686550E1
2.529358125E0,-4.095356163E1,-2.350905564E1,8.033326798E1,9.318424680E1
2.539304125E0,-2.485482740E1,-2.387590995E1,9.504199041E1,1.010979795E2
2.549251125E0,-4.253393304E0,-2.381137306E1,1.042417563E2,1.070112919E2
2.559197125E0,1.593298204E1,-2.207853433E1,1.021936216E2,1.057584885E2
2.569143125E0,4.034145171E1,-1.570332446E1,9.488058855E1,1.042897560E2
2.579090125E0,6.596968565E1,-1.006268976E1,8.400615206E1,1.072860230E2
2.589036125E0,8.224234179E1,-3.228750622E0,6.432167832E1,1.044581539E2
2.598982333E0,9.085858360E1,4.168718020E0,4.141012626E1,9.993727523E1
2.608928334E0,9.299058134E1,6.893555598E0,2.022582066E1,9.541411399E1
2.618874333E0,8.552893541E1,6.023137906E0,4.196708057E0,8.584340011E1
2.628821333E0,7.365231422E1,3.083266634E0,-3.771629512E0,7.381324483E1
2.638767333E0,6.225794799E1,-6.498034143E-1,-4.917171564E0,6.245520722E1
2.648714333E0,5.128908598E1,-3.995525832E0,-4.491542212E0,5.164018318E1
2.658660333E0,4.054451849E1,-6.602446119E0,-3.133701793E0,4.119794123E1
2.668606333E0,2.981334814E1,-9.575814920E0,-1.254227757E-1,3.131369811E1
2.678553334E0,2.093936574E1,-1.224371991E1,2.303877227E0,2.436541740E1
2.688499333E0,1.410601366E1,-1.475581357E1,3.843958400E0,2.077232947E1
2.698446333E0,9.344096780E0,-1.561248445E1,3.502887973E0,1.852922124E1
2.708392333E0,8.707962987E0,-1.320368420E1,1.254220741E0,1.586628393E1
2.718339333E0,1.222385224E1,-9.011172109E0,-2.813677833E0,1.544475864E1
2.728285333E0,1.444982760E1,-5.569043139E0,-8.495320219E0,1.766301856E1
2.738231333E0,1.410733630E1,-2.655123564E0,-1.057990288E1,1.783258152E1
2.748178333E0,1.356659281E1,-3.903338045E-1,-7.900446718E0,1.570419878E1
2.758124333E0,1.227443768E1,1.548758442E0,-4.513374546E0,1.316932127E1
2.768071333E0,9.209565212E0,2.981250263E0,-1.583604923E0,9.808758794E0
2.778017333E0,5.939478868E0,3.287318673E0,2.048141649E0,7.090751547E0
2.787963333E0,4.052680903E0,3.509952579E0,5.613523493E0,7.762450361E0
2.797910333E0,3.394386162E0,3.868682767E0,6.976985425E0,8.669884047E0
2.807856333E0,3.092979737E0,4.346331874E0,5.163227077E0,7.424017662E0
2.817803333E0,2.714099166E0,4.451374764E0,1.291407863E0,5.371108437E0
2.827749333E0,1.575290037E0,3.435826841E0,-2.079019625E0,4.313788055E0
2.837695333E0,5.646424460E-1,1.944648271E0,-2.407903286E0,3.146184391E0
2.847642333E0,-3.263695045E-1,7.646737200E-1,-5.364890528E-1,9.894763541E-1
2.857588333E0,-1.521534390E0,-1.853830487E-1,8.454570973E-1,1.750494638E0
2.867535333E0,-2.770304649E0,-9.209639472E-1,1.399291331E0,3.237403075E0
2.877481333E0,-3.085072839E0,-1.154599389E0,1.842271711E0,3.774220347E0
2.887427333E0,-2.769386929E0,-1.143481493E0,1.426339381E0,3.318357713E0
2.897374333E0,-2.135801059E0,-5.527665317E-1,-1.112051539E0,2.470598233E0
2.907320333E0,-1.126026750E0,6.247843480E-1,-4.748869987E0,4.920371721E0
2.917267333E0,-3.366812520E-1,1.499587451E0,-6.398466586E0,6.580462859E0
2.927213333E0,1.457803869E-1,1.731489778E0,-4.505653297E0,4.829101408E0
2.937160333E0,-6.571329723E-1,1.015527458E0,-3.436139667E-1,1.257453903E0
2.947106333E0,-2.265340567E0,-2.383044434E-1,2.927834194E0,3.709551180E0
2.957052333E0,-3.560083390E0,-1.246964931E0,4.193948171E0,5.640772690E0
2.966999333E0,-3.829388016E0,-1.483219340E0,3.662964857E0,5.502859596E0
2.976945333E0,-2.863542303E0,-1.330441536E0,2.578742555E0,4.076746542E0
2.986892333E0,-1.603877513E0,-8.095832598E-1,5.768769407E-1,1.886964529E0
2.996838333E0,-2.539818335E-1,7.203196657E-1,-1.406631925E0,1.600618807E0
3.006784333E0,7.940188488E-1,1.828748855E0,-1.880780303E0,2.740825215E0
3.016731333E0,9.387292501E-1,1.665315669E0,-1.360216727E0,2.346205112E0
3.026677333E0,-2.273744624E-3,8.123010457E-1,-4.356128883E-1,9.217357252E-1
3.036624333E0,-7.176574284E-1,-2.466378951E-1,1.068276944E0,1.310373254E0
3.046570333E0,-1.376766394E0,-1.087162866E0,1.970398239E0,2.638158074E0
3.056516333E0,-2.088233375E0,-1.767645451E0,2.059684052E0,3.424556536E0
3.066463333E0,-2.049037004E0,-1.976279953E0,1.628577029E0,3.279710084E0
3.076409333E0,-1.075659054E0,-1.436465004E0,2.880209974E-1,1.817534100E0
3.086356333E0,3.505265085E-1,-2.958264273E-1,-1.124113176E0,1.214089181E0
3.096302333E0,1.281559982E0,5.089545143E-1,-2.171993862E0,2.572739401E0
3.106249333E0,1.336213176E0,4.006734359E-1,-1.957098162E0,2.403380551E0
3.116195333E0,4.391874374E-1,-6.811509222E-1,-5.650070930E-1,9.879702420E-1
3.126141333E0,-8.872825963E-1,-1.948169464E0,6.380598664E-1,2.233775964E0
3.136088333E0,-1.988191901E0,-2.901997102E0,1.499865779E0,3.824145861E0
3.146034333E0,-1.948443406E0,-2.965110778E0,1.702356026E0,3.935267421E0
3.155981333E0,-2.025697331E-1,-1.706823299E0,1.519719415E0,2.294303243E0
3.165927333E0,1.801779158E0,-4.161439991E-1,1.049674612E0,2.126358566E0
3.175873333E0,2.710586451E0,3.003270292E-1,-1.524123172E-1,2.731429067E0
3.185820333E0,1.363759263E0,-3.299472696E-1,-1.064243535E0,1.761056169E0
3.195766333E0,-6.794663393E-1,-1.665157210E0,-1.381006905E-1,1.803744671E0
3.205713333E0,-2.408881233E0,-2.683859705E0,1.937769606E0,4.093991055E0
3.215659333E0,-2.603864533E0,-2.778534898E0,2.826524166E0,4.742320692E0
3.225605333E0,-1.366914128E0,-1.757918023E0,1.502188293E0,2.686130987E0
3.235552333E0,-5.920355915E-1,-3.534805584E-1,-2.911539173E-1,7.484819639E-1
3.245498333E0,3.080199185E-1,1.129684403E0,-1.438120351E0,1.854522382E0
3.255445333E0,9.751173502E-1,2.307430580E0,-1.310379739E0,2.827045240E0
3.265391333E0,5.428621524E-1,2.658910806E0,-6.722672474E-1,2.795791344E0
3.275338333E0,-4.496866979E-2,2.701846910E0,-3.366229991E-1,2.723107407E0
3.285284333E0,-8.344843586E-1,2.418538787E0,1.497343473E-1,2.562833272E0
3.295230333E0,-1.719102452E0,1.870438918E0,1.647756700E-1,2.545782003E0
3.305177333E0,-2.694737281E0,1.210746692E0,-3.505173722E-2,2.954444988E0
3.315123333E0,-2.485884093E0,1.064972098E0,-6.084612608E-3,2.704407942E0
3.325070333E0,-1.246862312E0,1.212784447E0,-1.880639970E-1,1.749537027E0
3.335016333E0,-7.067148028E-1,1.155817949E0,-9.142004728E-1,1.634357197E0
3.344962333E0,-1.042053936E0,5.546148366E-1,-2.609610007E0,2.864181979E0
3.354909333E0,-1.654057733E0,1.254391479E-1,-3.918040284E0,4.254724624E0
3.364855333E0,-2.352320970E0,-5.223025382E-2,-3.313051100E0,4.063551345E0
3.374802333E0,-3.075721095E0,-4.479627925E-1,-1.498471802E0,3.450528751E0
3.384748333E0,-3.770136133E0,-8.860309267E-1,-3.498295569E-1,3.888619033E0
3.394694333E0,-4.073294969E0,-9.950434917E-1,-4.539357233E-1,4.217570521E0
3.404641334E0,-3.488378107E0,-7.543142080E-1,-7.512186921E-1,3.647204582E0
3.414587333E0,-3.032780605E0,-5.014040047E-1,-7.277643406E-1,3.158924676E0
3.424534333E0,-3.725849322E0,-4.275039697E-1,-3.150093877E-1,3.763501525E0
3.434480333E0,-5.368154444E0,-2.507274377E-1,3.232539618E-1,5.383719857E0
3.444426333E0,-7.015929050E0,-2.784888482E-1,6.665018928E-1,7.053016465E0
3.454373333E0,-7.928119835E0,-5.529659218E-1,8.364219797E-1,7.991273813E0
3.464319333E0,-8.042997742E0,-2.440335453E-1,1.006821538E0,8.109442315E0
3.474266334E0,-7.362339740E0,3.119232273E-1,7.602023542E-1,7.408053062E0
3.484212333E0,-6.446074031E0,9.876046640E-1,5.831942725E-1,6.547316164E0
3.494159333E0,-6.470616549E0,1.524908234E0,9.741180611E-1,6.718863717E0
3.504105333E0,-7.636050244E0,1.435101433E0,1.201137378E0,7.862029665E0
3.514051333E0,-8.868373747E0,1.237066180E0,1.794572464E0,9.132298505E0
3.523998333E0,-1.020871930E1,1.135987701E0,3.299443460E0,1.078863962E1
3.533944333E0,-1.086047568E1,1.326030981E0,5.183933237E0,1.210708280E1
3.543891333E0,-1.068098019E1,2.273395692E0,6.867484617E0,1.290015546E1
3.553837333E0,-9.860663785E0,3.797978235E0,7.792332870E0,1.312927190E1
3.563783333E0,-8.995798025E0,5.656799321E0,7.754193236E0,1.315489542E1
3.573730333E0,-9.578704029E0,6.553506678E0,6.814936275E0,1.345895156E1
3.583676333E0,-1.133827974E1,6.356472468E0,5.925400527E0,1.428536668E1
3.593624333E0,-1.326763988E1,6.037049017E0,6.119869564E0,1.580914395E1
3.603570333E0,-1.372623349E1,6.813948095E0,6.135554720E0,1.650710169E1
3.613516333E0,-1.384650136E1,8.803731024E0,6.385196915E0,1.760687421E1
3.623463333E0,-1.540947263E1,1.020999867E1,6.848174188E0,1.971277275E1
3.633409333E0,-1.972816180E1,1.056948315E1,7.114664549E0,2.348473533E1
3.643356333E0,-2.615226842E1,8.895531140E0,6.667972357E0,2.841713344E1
3.653302333E0,-3.415250606E1,4.831216909E0,7.129791881E0,3.522170154E1
3.663249333E0,-4.121994206E1,8.177898270E-1,1.368871308E1,4.344114720E1
3.673195333E0,-4.346168502E1,-1.344875388E0,2.538709009E1,5.035107842E1
3.683141333E0,-4.122866611E1,-1.850888752E0,3.752213482E1,5.577758779E1
3.693088333E0,-3.645047585E1,-8.265752685E-1,4.702452918E1,5.950316597E1
3.703034333E0,-3.055574104E1,3.639891744E-3,5.408285288E1,6.211769715E1
3.712981333E0,-2.304787638E1,-8.781406939E-2,5.854131739E1,6.291500742E1
3.722927333E0,-1.514924113E1,-3.884796524E-1,6.346274105E1,6.524699169E1
3.732873333E0,-6.630966498E0,-1.316280164E0,6.900860524E1,6.933894943E1
3.742820333E0,3.870804137E0,-1.146263013E0,7.290467520E1,7.301635919E1
3.752766333E0,1.453296682E1,2.541082978E-2,7.553664730E1,7.692199201E1
3.762713333E0,2.281414446E1,3.418633103E-1,7.514673625E1,7.853428567E1
3.772659333E0,3.148908296E1,7.725358862E-1,7.027186578E1,7.700840394E1
3.782605333E0,4.061980256E1,2.071065658E0,6.738522171E1,7.870848606E1
3.792552333E0,5.031612333E1,2.009221997E0,6.465243426E1,8.194929222E1
3.802498333E0,5.964903731E1,1.962373520E0,5.346339417E1,8.012610735E1
3.812445333E0,6.906479932E1,4.454112430E0,3.771251782E1,7.881636647E1
3.822391333E0,7.338925969E1,5.982144247E0,2.410634404E1,7.747828928E1
3.832338333E0,7.030448389E1,2.833795179E0,1.254666883E1,7.147146108E1
3.842284333E0,6.131178430E1,-2.032217342E0,6.557151833E0,6.169490288E1
3.852230333E0,5.111692057E1,-6.655429494E0,5.287725992E0,5.181886101E1
3.862177333E0,4.229238690E1,-1.130720296E1,3.728422097E0,4.393631710E1
3.872123333E0,3.223982101E1,-1.485073960E1,4.054404370E0,3.572658282E1
3.882070333E0,2.322811563E1,-1.648455925E1,6.626382866E0,2.924371726E1
3.892016333E0,2.022920970E1,-1.658019163E1,6.691540729E0,2.699815544E1
3.901962333E0,2.053626337E1,-1.564262100E1,3.122817786E0,2.600349392E1
3.911909333E0,2.020483851E1,-1.315285787E1,-1.798438497E0,2.417576370E1
3.921855333E0,1.936953101E1,-1.075606429E1,-6.358589745E0,2.305001766E1
3.931802333E0,1.831439042E1,-8.931312007E0,-9.297257659E0,2.239696923E1
3.941748333E0,1.641716307E1,-7.166341072E0,-1.092528154E1,2.098193185E1
3.951695333E0,1.421434035E1,-5.697919280E0,-1.249537238E1,1.976481941E1
3.961641333E0,1.086553820E1,-4.805449984E0,-1.374189468E1,1.816568026E1
3.971587333E0,7.241832134E0,-4.101800146E0,-1.194215678E1,1.455623597E1
3.981534333E0,5.904234191E0,-3.199955424E0,-6.694108826E0,9.482129986E0
3.991480333E0,6.188848583E0,-2.112662750E0,-1.214144071E0,6.651265782E0
4.001427333E0,5.405994115E0,-1.144068553E0,1.322507887E0,5.681786016E0
4.011373333E0,3.528684426E0,-4.606845796E-1,1.215933027E0,3.760629892E0
4.021319333E0,2.038844868E0,5.428701192E-1,-4.018336697E-1,2.147805080E0
4.031266333E0,1.355411485E0,1.489332604E0,-1.804692971E0,2.704102184E0
4.041212333E0,2.104853647E-1,9.139057732E-1,-6.199697506E-1,1.124228777E0
4.051159333E0,-1.223607278E0,-5.439810902E-1,1.409415200E0,1.944114555E0
4.061105334E0,-2.847540228E0,-1.678007051E0,1.999455392E0,3.862902391E0
4.071051333E0,-3.532752042E0,-2.330542284E0,1.244711999E0,4.411470536E0
4.080998333E0,-2.935225951E0,-2.362044743E0,7.598580994E-2,3.768365773E0
4.090944333E0,-1.513052127E0,-1.632354915E0,-7.210879898E-1,2.339631850E0
4.100891333E0,-2.245933805E-3,-7.640357888E-1,-9.394616870E-1,1.210926914E0
4.110837333E0,5.781074142E-1,1.505611253E-1,-1.926394433E0,2.016896712E0
4.120784333E0,3.139249485E-2,1.511548516E0,-2.832621642E0,3.210842533E0
4.130730334E0,-5.528997751E-1,2.451648061E0,-1.380049313E0,2.867195927E0
4.140676333E0,-6.638213830E-1,2.469740515E0,1.638594478E0,3.037312777E0
4.150623333E0,-5.037662798E-1,2.122392517E0,4.200353211E0,4.733000904E0
4.160569333E0,-5.550731486E-1,1.452120924E0,5.082461826E0,5.314901654E0
4.170516333E0,3.308458770E-1,8.967377633E-1,3.385775260E0,3.518106269E0
4.180462333E0,1.544886854E0,8.085366082E-1,-2.558156848E-2,1.743863887E0
4.190408333E0,2.211289344E0,1.196885283E0,-3.097323925E0,3.989454906E0
4.200355333E0,2.698848458E0,2.481568263E0,-4.469377756E0,5.780769981E0
4.210301333E0,2.894703285E0,3.855247620E0,-4.160820186E0,6.368254544E0
4.220248333E0,2.542145125E0,4.129450459E0,-2.670556705E0,5.535949426E0
4.230194333E0,1.355392190E0,3.335167608E0,-2.872748927E-1,3.611503541E0
4.240140333E0,3.945292914E-1,2.258468919E0,2.141662016E0,3.137363768E0
4.250087333E0,-2.698290853E-1,1.151675196E0,3.396708384E0,3.596775130E0
4.260033333E0,-1.383294079E0,1.094405812E-1,3.438277994E0,3.707726435E0
4.269980333E0,-2.499284742E0,-8.641904068E-1,2.629997494E0,3.729629485E0
4.279926333E0,-3.236186819E0,-1.798607043E0,1.631189564E0,4.045821526E0
4.289872333E0,-2.632483437E0,-2.068502823E0,5.201706433E-1,3.388104260E0
4.299819333E0,-1.739267744E0,-1.780284793E0,-1.766338599E-1,2.495128404E0
4.309765333E0,-1.438838389E0,-1.573990347E0,-3.661105442E-1,2.163732528E0
4.319712333E0,-7.840011066E-1,-1.345382926E0,-2.956644595E-1,1.584970165E0
4.329658333E0,-4.283954142E-1,-1.089667813E0,-2.183011186E-1,1.191030626E0
4.339605333E0,-1.040540238E0,-1.061913419E0,-1.658667970E-1,1.495959856E0
4.349551333E0,-2.021522638E0,-1.280081806E0,-1.653124809E-1,2.398435203E0
4.359497333E0,-2.701277684E0,-1.597792023E0,-1.401109815E-2,3.138476825E0
4.369444333E0,-2.579774589E0,-1.522091045E0,3.528443813E-1,3.016039993E0
4.379390333E0,-1.475922600E0,-8.333995539E-1,6.822519529E-1,1.827120703E0
4.389337333E0,8.051904660E-2,2.074475169E-2,4.521113920E-1,4.596937811E-1
4.399283333E0,1.135887641E0,6.973909789E-1,-1.146872650E-2,1.332939024E0
4.409229333E0,1.214411216E0,9.967625731E-1,-1.173372459E-1,1.575467631E0
4.419176333E0,7.116160852E-1,8.347543538E-1,1.031635952E-1,1.101750884E0
4.429122333E0,3.650649890E-1,4.351936430E-1,3.643709975E-1,6.748571530E-1
4.439069333E0,-8.469255159E-2,4.330079538E-1,3.072249895E-1,5.376392011E-1
4.449015333E0,-7.096376067E-1,9.118703574E-1,1.577356589E-1,1.166179068E0
4.458962333E0,-2.475510109E-1,1.084455605E0,-2.929982205E-2,1.112737140E0
4.468908333E0,9.498773322E-1,1.129613652E0,-1.876983633E-3,1.475905644E0
4.478854333E0,1.672008100E0,1.135696510E0,4.639093190E-1,2.073795917E0
4.488801333E0,1.420566279E0,9.258510500E-1,1.012217349E0,1.974789275E0
4.498747333E0,5.426568055E-1,5.192719263E-1,1.423632705E0,1.609611698E0
4.508694333E0,-3.901414311E-1,1.510452747E-2,1.818978742E0,1.860409135E0
4.518640333E0,-8.332796860E-1,-6.144172347E-1,1.969769663E0,2.225276634E0
4.528586333E0,-9.007947077E-1,-8.261671329E-1,1.636949657E0,2.042935979E0
4.538533333E0,-3.082150328E-1,-5.067162001E-1,1.012419662E0,1.173350496E0
4.548479333E0,9.587118173E-1,1.326487648E-1,1.286480999E-1,9.763577095E-1
4.558426333E0,1.870403542E0,5.006906444E-1,-5.184398675E-1,2.004465123E0
4.568372333E0,1.967034482E0,5.463538903E-1,-6.919185698E-1,2.155569190E0
4.578318333E0,1.530342928E0,3.576414371E-1,-5.649538833E-1,1.670038852E0
4.588265333E0,9.351648606E-1,-8.231125474E-3,-6.031315237E-1,1.112820157E0
4.598211333E0,5.662254334E-1,-3.404827827E-1,-7.762535459E-1,1.019367124E0
4.608158333E0,3.832005303E-1,-4.259345770E-1,-7.785409766E-1,9.666379687E-1
4.618104333E0,4.117736074E-1,-2.701343465E-1,-4.881682473E-1,6.934250548E-1
4.628051333E0,6.639839356E-1,1.103936774E-1,-3.692119074E-1,7.677101427E-1
4.637997333E0,1.159413036E0,3.651340592E-1,-4.930571409E-1,1.311741900E0
4.647943333E0,1.717627492E0,3.279118538E-1,-9.133064336E-1,1.972789656E0
4.657890333E0,1.944216161E0,6.187699020E-2,-1.099810978E0,2.234589321E0
4.667836333E0,1.407920651E0,-3.430625743E-1,-9.721241605E-1,1.744980766E0
4.677783333E0,3.047561124E-1,-5.723587972E-1,-6.560002935E-1,9.223921432E-1
4.687729333E0,-8.685212202E-1,-6.072619969E-1,5.271264911E-3,1.059775462E0
4.697675333E0,-1.279244923E0,-5.758951932E-1,8.992181522E-1,1.666348143E0
4.707622333E0,-7.640249714E-1,-4.565418273E-1,1.656259502E0,1.880255337E0
4.717568333E0,-9.467515569E-2,-2.324566430E-1,2.216922698E0,2.231086221E0
4.727515333E0,5.136596956E-1,-2.848763466E-2,2.362872124E0,2.418227141E0
4.737461333E0,1.141790040E0,3.924540049E-1,2.074790334E0,2.400512356E0
4.747407333E0,1.347138991E0,5.307406551E-1,1.269829298E0,1.925859691E0
4.757354333E0,7.814137137E-1,4.116913444E-1,2.000215530E-1,9.055969173E-1
4.767300333E0,9.137223716E-2,2.875292283E-1,-4.667142284E-1,5.557374505E-1
4.777247333E0,-3.435751193E-1,1.380457449E-1,-4.952702024E-1,6.183793849E-1
4.787193333E0,-1.068664816E-1,1.555774516E-1,-1.929470068E-1,2.699135709E-1
4.797140333E0,3.718943907E-1,1.796510231E-1,2.243436313E-1,4.700106305E-1
4.807086333E0,7.307747796E-1,5.332777619E-2,5.778498443E-1,9.331591894E-1
4.817032333E0,8.482837875E-1,3.237837195E-2,8.564007461E-1,1.205842436E0
4.826979333E0,7.926101084E-1,8.978633523E-2,6.666294352E-1,1.039561049E0
4.836925333E0,6.340036529E-1,7.898828208E-2,-2.198997474E-1,6.756890406E-1
4.846872333E0,-1.370274523E-1,1.129682064E-1,-2.409436426E0,2.415972316E0
4.856818334E0,-7.898570931E-1,5.785334569E-1,-1.230618016E0,1.572576195E0
4.866764333E0,2.047926983E-1,2.828660738E-1,7.662442821E-1,8.420709975E-1
4.876711333E0,5.167312380E-1,-2.040368360E-1,1.053575290E0,1.191076443E0
4.886657333E0,8.879447387E-2,-3.336181515E-1,5.313148516E-1,6.336252845E-1
4.896604333E0,-5.293756226E-1,-2.285284835E-1,5.828913867E-2,5.795355392E-1