"Time (s)","Linear Acceleration x (m/s^2)","Linear Acceleration y (m/s^2)","Linear Acceleration z (m/s^2)","Absolute acceleration (m/s^2)"
9.068083251E-3,-6.570199017E-1,-1.265471953E-1,-3.978685266E-1,7.784527656E-1
1.901408331E-2,-5.404949802E-1,-1.238323331E-2,-4.386049817E-1,6.961770594E-1
2.896108315E-2,-3.713427790E-1,1.348186666E-1,-3.519427407E-1,5.290890521E-1
3.890708322E-2,-1.137410621E-1,1.900684226E-1,-1.122356234E-1,2.483140544E-1
4.885308328E-2,8.091640145E-2,1.450197190E-1,1.726665241E-1,2.395660899E-1
5.879908334E-2,1.346150373E-1,-1.175290346E-4,4.190781319E-1,4.401678120E-1
6.874608318E-2,1.467772458E-1,-7.162897646E-2,5.491500288E-1,5.729223545E-1
7.869208325E-2,3.515521467E-2,-8.797837615E-2,4.914152793E-1,5.004648444E-1
8.863808331E-2,-1.893404442E-1,-1.575058633E-1,4.007558817E-1,4.703862004E-1
9.858408314E-2,-4.681481119E-1,-2.144659299E-1,1.779039482E-1,5.448009770E-1
1.085310832E-1,-7.336510250E-1,-2.119510424E-1,-1.119215548E-2,7.637357758E-1
1.184770833E-1,-7.887875643E-1,-1.619205111E-1,-8.297659479E-2,8.094993445E-1
1.284230833E-1,-6.628245789E-1,-9.127679050E-2,-6.081170060E-2,6.718377317E-1
1.383690832E-1,-4.085159408E-1,-5.115728974E-3,1.886947654E-2,4.089834981E-1
1.483160832E-1,-6.378617920E-2,5.607889116E-2,1.297601672E-1,1.550845566E-1
1.582620833E-1,1.579240854E-1,9.398989856E-2,2.302732927E-1,2.946182396E-1
1.682080831E-1,3.284878776E-1,1.555762821E-1,3.083125716E-1,4.766181985E-1
1.781540832E-1,4.148013322E-1,2.096086478E-1,3.011503172E-1,5.537936836E-1
1.881010833E-1,3.396574482E-1,1.440958589E-1,1.731875110E-1,4.075839946E-1
1.980470833E-1,2.430380568E-1,9.594754636E-2,1.138569832E-2,2.615397921E-1
2.079930832E-1,1.074539897E-1,8.630314887E-2,-1.482660200E-1,2.024287680E-1
2.179400832E-1,-1.046104887E-1,6.331832886E-2,-2.757272813E-1,3.016257595E-1
2.278860833E-1,-2.922101437E-1,-1.403624117E-2,-3.274721432E-1,4.391147785E-1
2.378320831E-1,-4.050220102E-1,-5.660514057E-2,-2.960053521E-1,5.048426876E-1
2.477780832E-1,-3.607113715E-1,-3.494237602E-2,-1.552062265E-1,3.942367764E-1
2.577250833E-1,-1.766307170E-1,7.481278539E-2,1.242808145E-1,2.285630852E-1
2.676710833E-1,5.178871594E-2,2.108231145E-1,4.118900766E-1,4.655984235E-1
2.776170832E-1,3.126849002E-1,2.525541079E-1,5.632499316E-1,6.919580259E-1
2.875630832E-1,4.661365966E-1,5.756525338E-2,5.360124316E-1,7.126755306E-1
2.975100833E-1,4.364461166E-1,-2.086146212E-1,3.503949827E-1,5.973122439E-1
3.074560831E-1,1.794680053E-1,-3.558434182E-1,1.195487360E-1,4.160831690E-1
3.174020832E-1,-1.464637620E-1,-2.962234533E-1,-3.061251283E-2,3.318690914E-1
3.273480833E-1,-3.829417545E-1,-1.331334990E-1,-1.484567124E-1,4.317502882E-1
3.372950833E-1,-4.428780538E-1,-2.129555941E-2,-2.001315538E-1,4.864638838E-1
3.472410832E-1,-3.020999781E-1,2.963602781E-2,-2.133182676E-1,3.710085905E-1
3.571870832E-1,-1.039478530E-1,-4.671340585E-3,-1.950380442E-1,2.210584001E-1
3.671330833E-1,1.399517179E-1,-9.751927793E-2,-1.345309836E-1,2.172442829E-1
3.770800831E-1,2.803455584E-1,-1.375908315E-1,-9.970854856E-2,3.278210849E-1
3.870260832E-1,2.954970829E-1,-7.634884894E-2,-7.263243176E-2,3.137246291E-1
3.969720833E-1,2.614345667E-1,4.394884229E-2,-4.080187082E-2,2.682243950E-1
4.069188333E-1,1.725435863E-1,1.177295941E-1,-2.288775623E-2,2.101318536E-1
4.168658333E-1,8.936811313E-2,4.610821903E-2,2.999628939E-2,1.049400061E-1
4.268118332E-1,4.500645742E-2,1.464727521E-2,1.417020088E-1,1.493974002E-1
4.367578332E-1,2.446877025E-2,2.990967751E-2,2.147121707E-1,2.181619256E-1
4.467048333E-1,5.405707017E-2,8.346023262E-2,2.647976658E-1,2.828525784E-1
4.566508331E-1,1.191063210E-1,1.305233020E-1,2.312317244E-1,2.910167666E-1
4.665968332E-1,9.274509944E-2,6.231611609E-2,9.405604519E-2,1.460530432E-1
4.765428333E-1,2.605957836E-2,1.717619598E-2,-8.108860195E-2,8.688777071E-2
4.864898333E-1,-8.556661896E-2,1.714988351E-3,-1.664678176E-1,1.871793840E-1
4.964358332E-1,-1.789319618E-1,-3.668952405E-2,-1.212227207E-1,2.192207019E-1
5.063818332E-1,-2.104469924E-1,1.656340778E-2,4.727948941E-2,2.163276062E-1
5.163278333E-1,-1.964771902E-1,7.447247744E-2,2.801196367E-1,3.501663133E-1
5.262748331E-1,-1.166555337E-1,3.773792982E-3,3.827359325E-1,4.001369129E-1
5.362208332E-1,-1.142499892E-1,-1.406436628E-1,3.107841897E-1,3.597506254E-1
5.461668333E-1,-7.475065872E-2,-1.516299963E-1,2.371933993E-1,2.912731114E-1
5.561128333E-1,-4.570030265E-2,-3.179248095E-2,2.327011297E-1,2.392678317E-1
5.660598332E-1,-5.798391402E-2,5.863587856E-2,2.601052022E-1,2.728644659E-1
5.760058332E-1,-5.227388866E-2,8.695920646E-2,3.083494091E-1,3.246133409E-1
5.859518333E-1,-2.844787359E-2,2.269947588E-2,1.918372053E-1,1.952589590E-1
5.958988331E-1,-9.684085473E-3,-1.122940224E-1,4.334307075E-2,1.207574046E-1
6.058448332E-1,1.658080325E-2,-1.487683690E-1,-6.832522653E-2,1.645456995E-1
6.157908333E-1,8.283501908E-2,-1.043745536E-1,-1.708370034E-1,2.166586475E-1
6.257368333E-1,1.431394737E-1,-8.263811409E-2,-3.047544678E-1,3.466889853E-1
6.356838332E-1,1.591704194E-1,-7.551795959E-2,-3.222066524E-1,3.672265125E-1
6.456298332E-1,1.419194522E-1,2.381687880E-2,-2.418636435E-1,2.814363102E-1
6.555758333E-1,8.552371502E-2,9.806774676E-2,-2.701156354E-1,2.998233568E-1
6.655218333E-1,-5.832137145E-2,2.075059891E-2,-2.796980524E-1,2.864663510E-1
6.754688332E-1,-1.892232075E-1,-1.301987815E-1,-1.342456394E-1,2.660432985E-1
6.854148332E-1,-1.749818022E-1,-2.108219451E-1,-3.735954188E-2,2.765144824E-1
6.953608333E-1,-1.173017972E-1,-1.190574968E-1,-1.406079948E-2,1.677262807E-1
7.053068331E-1,-8.013630979E-2,-3.113057613E-3,4.446917139E-2,9.170074415E-2
7.152538332E-1,-3.855829418E-2,6.148347259E-2,4.937213480E-2,8.777566375E-2
7.251998333E-1,4.218751475E-2,4.144506454E-2,2.048922837E-2,6.258824375E-2
7.351458333E-1,7.929314129E-2,1.518171072E-2,3.014181197E-2,8.617665243E-2
7.450928332E-1,2.405493356E-2,-1.764748156E-2,1.935954630E-2,3.556494717E-2
7.550388332E-1,-9.948160350E-2,-4.749810219E-2,8.335315548E-2,1.382042245E-1
7.649848333E-1,-3.253617369E-1,-1.658252817E-1,1.177329563E-2,3.653722682E-1
7.749308331E-1,-5.366333328E-1,-2.877262795E-1,-1.046406019E-1,6.178279707E-1
7.848778332E-1,-6.773498666E-1,-3.340818357E-1,-1.940543964E-1,7.797888326E-1
7.948238333E-1,-7.215448766E-1,-3.710222054E-1,-3.011339450E-1,8.654282978E-1
8.047698333E-1,-7.181618969E-1,-3.918423861E-1,-4.169199977E-1,9.182152527E-1
8.147158332E-1,-7.222943435E-1,-3.677115119E-1,-5.201099054E-1,9.630343650E-1
8.246628332E-1,-7.512458816E-1,-2.974303186E-1,-6.925776241E-1,1.064189332E0
8.346088333E-1,-8.122329256E-1,-2.798986119E-1,-7.845391236E-1,1.163429067E0
8.445548331E-1,-9.381565154E-1,-2.299973041E-1,-6.737974638E-1,1.177726381E0
8.545008332E-1,-9.911998245E-1,-8.549155533E-2,-4.920917290E-1,1.109928001E0
8.644478333E-1,-1.041140528E0,5.504568815E-2,-1.925090504E-1,1.060218544E0
8.743938333E-1,-1.351916166E0,2.377033496E-1,1.791176109E-1,1.384291632E0
8.843398332E-1,-1.576020500E0,2.007664883E-1,5.101395987E-1,1.668649217E0
8.942868332E-1,-1.470129325E0,6.171151400E-2,7.412181991E-1,1.647571838E0
9.042328333E-1,-1.321102948E0,1.011159003E-2,9.229976088E-1,1.611626454E0
9.141788331E-1,-1.277786920E0,3.335953474E-2,9.372640841E-1,1.585028781E0
9.241248332E-1,-1.403165696E0,1.869343150E-1,8.127740854E-1,1.632305156E0
9.340718333E-1,-1.631049524E0,2.860913980E-1,4.488626790E-1,1.715706426E0
9.440178333E-1,-1.727307850E0,2.919105470E-1,-6.229981698E-2,1.752907711E0
9.539638332E-1,-1.687192588E0,3.146772659E-1,-4.698256049E-1,1.779431569E0
9.639098332E-1,-1.863057247E0,3.788124508E-1,-6.733835540E-1,2.016910159E0
9.738568333E-1,-2.297335362E0,4.417097801E-1,-5.035564379E-1,2.392995274E0
9.838028331E-1,-2.924710319E0,5.609555572E-1,1.613274573E-1,2.982386315E0
9.937488332E-1,-3.719518542E0,7.243402112E-1,9.311550593E-1,3.902119510E0
1.003694833E0,-4.553911830E0,9.153342479E-1,1.696687735E0,4.945169260E0
1.013641833E0,-5.203486326E0,1.040196860E0,1.903315473E0,5.637454145E0
1.023587833E0,-5.538519503E0,1.315118322E0,1.665729652E0,5.931221608E0
1.033533833E0,-6.010135453E0,1.783759793E0,1.026611440E0,6.352752018E0
1.043480833E0,-7.155447709E0,2.226272396E0,5.479180205E-1,7.513782992E0
1.053426833E0,-9.128702313E0,2.618643370E0,5.699274518E-1,9.513953769E0
1.063372833E0,-1.188042890E1,2.993506612E0,8.345642462E-1,1.228015350E1
1.073318833E0,-1.480830285E1,3.162562480E0,1.287430002E0,1.519687832E1
1.083265833E0,-1.688057362E1,2.974225418E0,2.330387333E0,1.729827991E1
1.093211833E0,-1.839092579E1,2.432242906E0,3.228213263E0,1.882985178E1
1.103157833E0,-1.976302757E1,1.279448553E0,3.607748430E0,2.013032777E1
1.113103833E0,-2.126581579E1,-6.358969814E-1,4.155130845E0,2.167727839E1
1.123050833E0,-2.177211918E1,-2.416899812E0,5.298435752E0,2.253752426E1
1.132996833E0,-2.073201880E1,-2.883943239E0,7.322340108E0,2.217544580E1
1.142942833E0,-1.915376758E1,-1.718212506E0,1.080648483E1,2.205899320E1
1.152889833E0,-1.734593480E1,-4.255673718E-1,1.453020694E1,2.263160346E1
1.162835833E0,-1.492194466E1,-1.968336511E-1,1.684117859E1,2.250174376E1
1.172781833E0,-1.254961349E1,-5.367486691E-1,1.732234596E1,2.139730281E1
1.182727833E0,-1.025069178E1,-9.589322573E-1,1.709733341E1,1.995783162E1
1.192674833E0,-8.148787322E0,-1.046923497E0,1.777578351E1,1.958257549E1
1.202620833E0,-5.863170365E0,-5.689142025E-1,1.979488086E1,2.065279009E1
1.212566833E0,-2.361343224E0,5.097602606E-1,2.111538330E1,2.125312234E1
1.222512833E0,8.816327242E-1,1.473342224E0,2.092663050E1,2.099694925E1
1.232459833E0,3.375125726E0,1.859651974E0,2.006290086E1,2.042962971E1
1.242405833E0,6.159605488E0,2.408426612E0,1.954415810E1,2.063287121E1
1.252351833E0,9.428642841E0,3.072616516E0,1.928739166E1,2.168741006E1
1.262297833E0,1.280447140E1,3.553340088E0,1.847446613E1,2.275712224E1
1.272244833E0,1.523230200E1,3.712452766E0,1.666390738E1,2.287992874E1
1.282190833E0,1.646065817E1,3.644401701E0,1.448176977E1,2.222513412E1
1.292136833E0,1.756470955E1,3.677171836E0,1.301310473E1,2.216712676E1
1.302082833E0,1.812010148E1,3.398376594E0,1.236012277E1,2.219593828E1
1.312029833E0,1.806615857E1,2.396262649E0,1.172263476E1,2.166906380E1
1.321975833E0,1.844039090E1,1.406602104E0,1.070486373E1,2.136868394E1
1.331921833E0,1.818016408E1,5.014443505E-1,9.918431937E0,2.071581773E1
1.341868833E0,1.702412393E1,-4.758095723E-1,9.373527571E0,1.943991280E1
1.351814833E0,1.617984330E1,-1.325273182E0,8.231123135E0,1.820151274E1
1.361760833E0,1.568002564E1,-2.113657361E0,6.275434152E0,1.702092316E1
1.371706833E0,1.519714737E1,-2.779768075E0,4.298922064E0,1.603624425E1
1.381653833E0,1.480008868E1,-3.030212508E0,2.575583889E0,1.532509201E1
1.391599833E0,1.393051767E1,-3.236352003E0,1.202601521E0,1.435198757E1
1.401545833E0,1.281688972E1,-3.518228728E0,-2.696973402E-2,1.329102414E1
1.411492250E0,1.150935874E1,-3.645072961E0,-1.681639341E0,1.218933167E1
1.421438250E0,9.814689467E0,-3.618389193E0,-3.204226230E0,1.094019814E1
1.431384250E0,8.201877701E0,-3.460025543E0,-3.923154259E0,9.727986119E0
1.441330250E0,6.826034875E0,-2.992206191E0,-3.809694886E0,8.370294208E0
1.451277250E0,5.619256103E0,-2.485301126E0,-3.642236477E0,7.142733888E0
1.461223250E0,4.947273615E0,-2.109444442E0,-3.317050595E0,6.318868311E0
1.471169250E0,4.187207501E0,-1.527641222E0,-2.943102443E0,5.341183984E0
1.481115250E0,3.313992501E0,-7.982279670E-1,-2.615680586E0,4.296684666E0
1.491062250E0,2.516400127E0,-1.541747046E-1,-2.320653473E0,3.426583135E0
1.501008250E0,1.734866691E0,3.446027309E-1,-2.080895412E0,2.731050932E0
1.510954250E0,1.302075523E0,7.964966065E-1,-1.757087134E0,2.327479905E0
1.520900250E0,1.381698520E0,1.289936703E0,-1.293027542E0,2.290185085E0
1.530847250E0,1.650668102E0,1.733991802E0,-7.882035005E-1,2.520455814E0
1.540793250E0,1.926363443E0,2.066935185E0,-3.610866165E-1,2.848417230E0
1.550739250E0,2.109566503E0,2.299968948E0,3.099842906E-2,3.121071754E0
1.560686250E0,1.947179530E0,2.128173074E0,3.492670548E-1,2.905618046E0
1.570632250E0,1.553746263E0,1.704525928E0,5.480735564E-1,2.370637195E0
1.580578250E0,9.404885311E-1,1.309055929E0,7.530371761E-1,1.779104014E0
1.590524250E0,5.453601560E-1,8.325587243E-1,5.586218969E-1,1.141328241E0
1.600471250E0,3.992532203E-1,2.098238254E-1,5.229400674E-2,4.540526784E-1
1.610417250E0,2.847045115E-1,-1.860315049E-1,-1.526988308E-1,3.728019751E-1
1.620363250E0,3.948662737E-1,-4.131145567E-1,-5.238028971E-1,7.752112526E-1
1.630309250E0,7.242693137E-1,-3.642142922E-1,-1.226079261E0,1.469860008E0
1.640256250E0,6.629522675E-1,-1.245790225E-1,-1.314559329E0,1.477528974E0
1.650202250E0,6.068665058E-1,-2.811165869E-2,-8.866016150E-1,1.074774230E0
1.660148250E0,4.744857627E-1,-1.922511882E-1,-2.815469055E-1,5.842652808E-1
1.670095250E0,5.440161735E-2,-6.258239830E-1,3.395033376E-1,7.140572175E-1
1.680041250E0,-4.047872445E-1,-1.000379661E0,6.828004217E-1,1.277038995E0
1.689987250E0,-6.697407386E-1,-1.174259482E0,8.382346165E-1,1.590621030E0
1.699933250E0,-6.517275868E-1,-1.178917959E0,7.760272586E-1,1.554610790E0
1.709880250E0,-4.022853671E-1,-9.524389243E-1,1.905689808E-1,1.051327712E0
1.719826250E0,1.239318088E-1,-5.045609164E-1,-3.809145248E-1,6.442334102E-1
1.729772250E0,2.474194486E-1,-2.459490931E-1,-8.174044955E-1,8.887392470E-1
1.739718250E0,6.866348796E-2,-3.948993105E-1,-1.049770507E0,1.123689573E0
1.749665250E0,-1.313985571E-1,-6.892908311E-1,-8.001622260E-1,1.064258906E0
1.759611250E0,-3.669662842E-1,-8.319699097E-1,-1.423469202E-1,9.203808071E-1
1.769557250E0,-6.221440378E-1,-7.542417026E-1,3.546687492E-1,1.040064263E0
1.779504250E0,-6.217890387E-1,-7.602298361E-1,3.627869868E-1,1.046988734E0
1.789450250E0,-4.455837066E-1,-9.384658331E-1,-9.951957386E-2,1.043631690E0
1.799396250E0,-1.331181501E-1,-1.033608803E0,-6.869367421E-1,1.248178547E0
1.809342250E0,6.439787105E-2,-8.930271202E-1,-1.171310658E0,1.474317870E0
1.819289250E0,2.646539705E-1,-5.323001075E-1,-1.292950358E0,1.423062106E0
1.829235250E0,5.114945447E-1,-1.406693906E-1,-1.152227831E0,1.268480793E0
1.839181250E0,6.361242188E-1,9.179485381E-2,-9.178877270E-1,1.120534781E0
1.849127250E0,6.185915619E-1,4.320800006E-2,-6.425937244E-1,8.930000819E-1
1.859074250E0,4.662216005E-1,-2.458204544E-1,-2.949475543E-1,6.039737878E-1
1.869020250E0,2.230494232E-1,-3.766057116E-1,1.922096729E-1,4.780454639E-1
1.878966250E0,-1.378980296E-1,-3.802479422E-1,4.623791393E-1,6.143279519E-1
1.888913250E0,-3.105770886E-1,-2.677749950E-1,2.388470650E-1,4.745624262E-1
1.898859250E0,-1.731773149E-1,-2.056360495E-1,-1.000867538E-1,2.868691784E-1
1.908805250E0,1.453982531E-1,3.911202550E-3,-2.093688754E-1,2.549338650E-1
1.918751250E0,4.496483621E-1,3.941292322E-1,-1.298958592E-1,6.118777945E-1
1.928698250E0,7.114097515E-1,7.390991682E-1,-1.803760413E-1,1.041588657E0
1.938644250E0,7.326396760E-1,7.069137543E-1,-4.274700558E-1,1.104182322E0
1.948590250E0,4.174617422E-1,2.540100646E-1,-6.142254460E-1,7.849001960E-1
1.958536250E0,-5.882379346E-2,-1.602885532E-1,-6.909362376E-1,7.117201299E-1
1.968483250E0,-5.014600649E-1,-3.039540571E-1,-4.509863512E-1,7.397560101E-1
1.978429250E0,-6.783551491E-1,-2.548468012E-1,6.823115945E-2,7.278516961E-1
1.988375250E0,-5.006316606E-1,-3.642990768E-2,2.599496663E-1,5.652725243E-1
1.998322250E0,1.103822753E-2,2.006910592E-1,1.943883820E-1,2.796168571E-1
2.008268250E0,4.281851337E-1,4.034608036E-1,5.757870197E-2,5.911331794E-1
2.018214250E0,4.914179105E-1,5.483758575E-1,-1.671028618E-1,7.550702022E-1
2.028160250E0,2.504282796E-1,5.965159839E-1,-3.296192408E-1,7.260815975E-1
2.038107250E0,-1.530359593E-1,4.381225133E-1,-2.392493534E-1,5.221222027E-1
2.048053250E0,-4.077854409E-1,1.297906458E-1,-3.736491401E-2,4.295703834E-1
2.057999250E0,-5.355881065E-1,-2.195980310E-2,1.677601254E-1,5.616763413E-1
2.067945250E0,-4.065188974E-1,1.542612433E-1,2.816978002E-1,5.180808776E-1
2.077892250E0,-2.702001277E-1,3.977808183E-1,3.531881611E-1,5.966402313E-1
2.087838250E0,-3.454343511E-1,4.842675698E-1,4.105879382E-1,7.227879531E-1
2.097784250E0,-4.544784546E-1,4.595777017E-1,3.134833010E-1,7.183551417E-1
2.107730250E0,-5.281564781E-1,3.163133168E-1,-2.798360467E-2,6.162681737E-1
2.117677250E0,-5.686592273E-1,8.257788777E-2,-5.034780486E-1,7.639912106E-1
2.127623250E0,-5.548448880E-1,5.624319792E-2,-7.115886033E-1,9.040876547E-1
2.137569250E0,-4.424669945E-1,2.483721793E-1,-4.778589483E-1,6.970042720E-1
2.147516250E0,-2.062169338E-1,4.318350023E-1,-2.140829372E-1,5.242503191E-1
2.157462250E0,-3.090874739E-2,5.358423507E-1,1.782461565E-2,5.370289493E-1
2.167408250E0,-1.951754173E-1,4.752488244E-1,3.309289805E-1,6.111210017E-1
2.177354250E0,-4.277980115E-1,2.478775048E-1,3.880703839E-1,6.285324326E-1
2.187301250E0,-4.709069013E-1,-5.637476027E-2,2.196810981E-1,5.226769634E-1
2.197247250E0,-4.314270128E-1,-1.923166770E-1,-4.547840081E-2,4.745347791E-1
2.207193250E0,-3.382737777E-1,-1.595611596E-1,-2.212446070E-1,4.345550465E-1
2.217140250E0,-1.640328543E-1,-1.414190036E-1,-2.265994505E-1,3.134540203E-1
2.227086250E0,-8.088895608E-2,-1.037705362E-1,-1.546926948E-1,2.030792387E-1
2.237032250E0,-7.837322809E-2,-1.127828497E-1,-8.679837149E-2,1.624693551E-1
2.246978250E0,-2.353840515E-1,-1.641178948E-1,9.391916553E-2,3.019290392E-1
2.256925250E0,-4.879039897E-1,-2.100454348E-1,2.961416288E-1,6.081687695E-1
2.266871250E0,-7.219888265E-1,-3.189001250E-1,3.789545381E-1,8.755408027E-1
2.276817250E0,-8.484043863E-1,-4.616236424E-1,2.300002825E-1,9.928678260E-1
2.286763250E0,-8.348674974E-1,-6.377382696E-1,1.281744389E-1,1.058367859E0
2.296710250E0,-6.957734929E-1,-7.086129552E-1,2.950832828E-1,1.036005414E0
2.306656250E0,-4.925533667E-1,-6.152048546E-1,4.046857953E-1,8.859212296E-1
2.316602250E0,-4.311708682E-1,-5.478829372E-1,3.813133049E-1,7.946595919E-1
2.326548250E0,-7.068378867E-1,-7.078990102E-1,3.149170383E-1,1.048767633E0
2.336495250E0,-9.923375465E-1,-8.952935010E-1,-3.953768453E-2,1.337104142E0
2.346441250E0,-1.325684680E0,-8.630425984E-1,-4.660909152E-1,1.649097674E0
2.356387250E0,-1.706682381E0,-6.956198573E-1,-6.227062476E-1,1.945357244E0
2.366334250E0,-1.972834627E0,-5.655245715E-1,-2.816264641E-1,2.071523105E0
2.376280250E0,-2.037814296E0,-4.857843375E-1,6.129145002E-1,2.182736291E0
2.386226250E0,-2.293223454E0,-4.551811802E-1,1.503171794E0,2.779494407E0
2.396172250E0,-2.918493851E0,-5.990232700E-1,1.780570722E0,3.470859740E0
2.406118875E0,-3.829173131E0,-8.994730908E-1,1.567774172E0,4.234328112E0
2.416064875E0,-4.729180657E0,-9.339348257E-1,1.061959612E0,4.936105972E0
2.426010875E0,-5.517106415E0,-4.682742655E-1,5.240011543E-1,5.561683306E0
2.435956875E0,-6.100788345E0,3.758970290E-1,4.707125088E-2,6.112538974E0
2.445903875E0,-6.542967072E0,1.158506498E0,4.098494714E-1,6.657366747E0
2.455849875E0,-7.397640551E0,1.411438336E0,1.527566963E0,7.684445635E0
2.465795875E0,-8.553847339E0,1.158528718E0,3.053355787E0,9.156062181E0
2.475742875E0,-9.645112612E0,9.622821271E-1,4.069864992E0,1.051275346E1
2.485688875E0,-1.084766443E1,1.016402786E0,4.116252124E0,1.164682059E1
2.495634875E0,-1.202203443E1,1.270038044E0,4.066592891E0,1.275458687E1
2.505580875E0,-1.319656229E1,1.392200412E0,4.085961208E0,1.388461585E1
2.515527875E0,-1.322154745E1,1.476518431E0,4.326661840E0,1.398961852E1
2.525473875E0,-1.269495656E1,1.919936768E0,4.826146789E0,1.371640522E1
2.535419875E0,-1.238492900E1,2.756347638E0,5.680980481E0,1.390170701E1
2.545366875E0,-1.289649839E1,3.439917553E0,6.652284862E0,1.491326917E1
2.555312875E0,-1.415493030E1,3.075678118E0,7.500600663E0,1.631198510E1
2.565258875E0,-1.607854730E1,1.385925765E0,8.604015865E0,1.828850903E1
2.575204875E0,-1.734047233E1,-8.126132870E-1,9.985055112E0,2.002632384E1
2.585151875E0,-1.827341313E1,-2.504323288E0,1.150896581E1,2.174041298E1
2.595097875E0,-1.863203456E1,-3.000885798E0,1.317105791E1,2.301379573E1
2.605043875E0,-1.820989951E1,-2.507477276E0,1.498727443E1,2.371721478E1
2.614989875E0,-1.806047859E1,-1.644251660E0,1.685245553E1,2.475660937E1
2.624936875E0,-1.795846923E1,-1.551841094E0,1.843496351E1,2.578299261E1
2.634882875E0,-1.687932348E1,-2.336379560E0,1.974822710E1,2.608376323E1
2.644828875E0,-1.522473687E1,-2.683981327E0,2.120553100E1,2.624254015E1
2.654775875E0,-1.233289112E1,-1.953293964E0,2.387880315E1,2.694648030E1
2.664721875E0,-8.762856063E0,-1.085813913E0,2.729276082E1,2.868556137E1
2.674667875E0,-5.010042890E0,-1.027914199E0,3.045232251E1,3.087881286E1
2.684613875E0,-4.233831444E-1,-9.559343898E-1,3.348588138E1,3.350219867E1
2.694560875E0,4.411911905E0,-9.085111320E-2,3.613507236E1,3.640352558E1
2.704506875E0,8.407573977E0,1.178641385E0,3.671044305E1,3.767934613E1
2.714452875E0,1.140090459E1,2.062736884E0,3.512546871E1,3.698694447E1
2.724398875E0,1.424868455E1,2.775758055E0,3.216394286E1,3.528808672E1
2.734345875E0,1.710275144E1,3.714127409E0,2.874334509E1,3.365232141E1
2.744291875E0,1.977217730E1,4.760666744E0,2.609566737E1,3.308454017E1
2.754237875E0,2.199628505E1,5.165267170E0,2.452354521E1,3.334547662E1
2.764184875E0,2.361830034E1,4.731761034E0,2.288265278E1,3.322392920E1
2.774130875E0,2.460194468E1,3.964680600E0,2.050263954E1,3.226968550E1
2.784076875E0,2.474548447E1,3.300259731E0,1.811361224E1,3.084369732E1
2.794022875E0,2.448627506E1,2.837591776E0,1.636895161E1,2.959006877E1
2.803969875E0,2.452665125E1,2.578477092E0,1.561357320E1,2.918884777E1
2.813915875E0,2.457710571E1,2.118039265E0,1.455983945E1,2.864453072E1
2.823861875E0,2.400064275E1,9.407731444E-1,1.205265279E1,2.687345057E1
2.833807875E0,2.328215794E1,-4.720965904E-1,8.313392290E0,2.472638762E1
2.843754875E0,2.192246045E1,-1.815425389E0,5.044452585E0,2.256848562E1
2.853700875E0,1.980470419E1,-3.249287213E0,3.037380610E0,2.029802592E1
2.863646875E0,1.761057744E1,-4.242656647E0,2.056262262E0,1.823076487E1
2.873593875E0,1.625367726E1,-4.374652863E0,1.453992033E0,1.689478336E1
2.883539875E0,1.548544083E1,-3.782473174E0,6.187488520E-1,1.595270607E1
2.893485875E0,1.435196626E1,-3.573963802E0,-8.821460366E-1,1.481655609E1
2.903431875E0,1.299640158E1,-3.757527198E0,-2.479801819E0,1.375408600E1
2.913378875E0,1.225954248E1,-3.591568015E0,-3.938144181E0,1.336804856E1
2.923324875E0,1.190273602E1,-2.887397189E0,-5.451942705E0,1.340656058E1
2.933270875E0,1.093000375E1,-2.122153950E0,-6.743358754E0,1.301696611E1
2.943216875E0,9.619740373E0,-1.403497818E0,-6.848288208E0,1.189152061E1
2.953163875E0,7.831161890E0,-8.504628986E-1,-5.508827927E0,9.612365412E0
2.963109875E0,5.968086371E0,-7.366702348E-1,-3.671030506E0,7.045367481E0
2.973055875E0,4.644082912E0,-1.036950486E0,-2.506213692E0,5.378092550E0
2.983002875E0,3.550436946E0,-1.340387065E0,-1.912204410E0,4.249560647E0
2.992948875E0,2.957646807E0,-1.142517287E0,-1.656020350E0,3.577069162E0
3.002894875E0,2.606559807E0,-3.941877043E-1,-1.862621191E0,3.227831419E0
3.012840875E0,2.088629963E0,4.247171867E-1,-1.940607845E0,2.882484799E0
3.022787875E0,1.556280592E0,9.942085093E-1,-1.630107830E0,2.463272494E0
3.032733875E0,1.271661523E0,1.428349069E0,-8.784260380E-1,2.104503836E0
3.042679875E0,1.069638761E0,1.829679732E0,4.021364093E-2,2.119781153E0
3.052626875E0,1.008134092E0,1.856238955E0,4.019528067E-1,2.150238001E0
3.062572875E0,1.030361698E0,1.488333315E0,4.880834627E-1,1.874835127E0
3.072518875E0,5.713415278E-1,1.090467712E0,3.733306861E-1,1.286439573E0
3.082464875E0,3.418234762E-2,1.276879286E0,-2.465735757E-1,1.300918011E0
3.092411875E0,-2.544521872E-1,1.719211795E0,-8.958425546E-1,1.955241416E0
3.102357875E0,-1.596954263E-1,1.842022035E0,-1.096409068E0,2.149572202E0
3.112303875E0,-1.414173225E-1,1.584359799E0,-6.185336745E-1,1.706686479E0
3.122249875E0,-2.216511346E-2,1.254226003E0,2.535142207E-1,1.279782645E0
3.132196875E0,2.316189014E-1,9.958948463E-1,8.517416847E-1,1.330758339E0
3.142142875E0,-3.062806277E-2,6.884464931E-1,1.126997023E0,1.320991651E0
3.152088875E0,-7.195223247E-1,3.512024832E-1,1.023937508E0,1.299809055E0
3.162035875E0,-1.071525803E0,1.492536879E-1,5.334578562E-1,1.206242718E0
3.171981875E0,-7.918650270E-1,1.719473165E-1,-4.713440537E-1,9.374333670E-1
3.181927875E0,-1.540127367E-1,2.863229477E-1,-1.375143499E0,1.413053572E0
3.191873875E0,6.049979550E-1,3.652504188E-1,-1.473252761E0,1.633984116E0
3.201820875E0,1.085257551E0,2.375910830E-1,-9.998879099E-1,1.494660265E0
3.211766875E0,1.056842714E0,-1.351671606E-1,-5.963995513E-1,1.221015605E0
3.221712875E0,6.324177419E-1,-6.619831645E-1,-3.255530870E-1,9.716783021E-1
3.231658875E0,-2.244435456E-3,-1.045223127E0,-1.707012749E-1,1.059072872E0
3.241605875E0,-4.705076826E-1,-1.284515750E0,-1.886896491E-1,1.380927940E0
3.251551875E0,-5.253809876E-1,-1.399788344E0,-2.185712234E-1,1.511028117E0
3.261497875E0,-3.187564662E-1,-1.482673795E0,-1.125834231E-1,1.520724267E0
3.271444875E0,-1.216675111E-1,-1.644664473E0,-2.837650102E-2,1.649402752E0
3.281390875E0,7.368111162E-2,-1.591596898E0,6.759381294E-3,1.593315813E0
3.291336875E0,1.006362459E-2,-1.439156477E0,-7.508957796E-3,1.439211252E0
3.301282875E0,-2.125223885E-1,-1.506835075E0,-1.768092763E-1,1.531985388E0
3.311229875E0,-1.757163769E-1,-1.523126587E0,-5.149993658E-1,1.617410026E0
3.321175875E0,-2.225462154E-2,-1.262218562E0,-8.829611385E-1,1.540555529E0
3.331121875E0,1.214732831E-1,-9.755857122E-1,-7.767125523E-1,1.252918844E0
3.341068875E0,4.935473203E-1,-7.825533360E-1,-5.619408496E-1,1.082476882E0
3.351014875E0,8.675341371E-1,-6.249960172E-1,-5.223434687E-1,1.189990840E0
3.360960875E0,7.916305536E-1,-7.184374470E-1,-6.384773576E-1,1.245184579E0
3.370906875E0,5.563685627E-1,-9.404006767E-1,-9.447966135E-1,1.444486085E0
3.380853875E0,5.633999857E-1,-7.903248703E-1,-1.285759453E0,1.610965647E0
3.390799875E0,5.993608005E-1,-3.352992260E-1,-1.488918622E0,1.639676066E0
3.400745875E0,5.699604521E-1,-8.059275806E-2,-1.461346661E0,1.570631775E0
3.410692583E0,5.550193908E-1,-1.083518296E-1,-1.154614592E0,1.285659947E0
3.420639583E0,5.705777353E-1,-3.292707467E-1,-7.472893631E-1,9.962025742E-1
3.430585583E0,4.386453275E-1,-5.056724721E-1,-5.671740711E-1,8.773829262E-1
3.440531583E0,2.049016210E-1,-4.263368654E-1,-4.412215376E-1,6.468572040E-1
3.450478583E0,1.608161914E-1,-2.914123642E-1,-4.027199614E-1,5.224618462E-1
3.460424583E0,3.203226795E-1,-2.534691972E-1,-5.878919256E-1,7.158702180E-1
3.470370583E0,3.798675077E-1,-2.878291905E-1,-7.429600847E-1,8.826860448E-1
3.480316583E0,3.148945265E-1,-2.407444865E-1,-7.648450434E-1,8.614548224E-1
3.490263583E0,3.231195489E-1,1.472153485E-2,-6.998941720E-1,7.710219312E-1
3.500209583E0,2.962512276E-1,1.202041358E-1,-6.947322500E-1,7.647657963E-1
3.510155583E0,1.629210794E-1,1.896076620E-2,-7.854389369E-1,8.023821486E-1
3.520102583E0,-9.403800105E-2,-1.306425852E-1,-8.408132386E-1,8.560826671E-1
3.530048583E0,-4.184192969E-1,-2.809996426E-1,-8.278148782E-1,9.691816031E-1
3.539994583E0,-5.644028563E-1,-3.574081331E-1,-8.980317521E-1,1.119264127E0
3.549940583E0,-5.494477252E-1,-2.853102100E-1,-9.053360939E-1,1.096780817E0
3.559887583E0,-5.192380124E-1,-1.497109401E-1,-8.853228289E-1,1.037216463E0
3.569833583E0,-4.055968281E-1,2.365549564E-2,-9.064686996E-1,9.933548574E-1
3.579779583E0,-2.814001586E-1,1.373429096E-1,-8.359156108E-1,8.926388029E-1
3.589725583E0,-3.483991818E-1,1.585700566E-1,-7.086720121E-1,8.054455124E-1
3.599672583E0,-3.929418088E-1,-1.923032284E-2,-5.386531073E-1,6.670234182E-1
3.609618583E0,-4.905357484E-1,-3.053228903E-1,-2.117013663E-1,6.153575028E-1
3.619564583E0,-6.250335856E-1,-3.797901052E-1,-1.119391878E-2,7.314593707E-1
3.629511583E0,-6.340793013E-1,-1.839428794E-1,-1.459084958E-1,6.761514862E-1
3.639457583E0,-5.272485882E-1,1.849094242E-1,-2.623622274E-1,6.172653460E-1
3.649403583E0,-4.311969614E-1,5.035312217E-1,-2.484131098E-1,7.079432067E-1
3.659349583E0,-3.048138171E-1,7.164815533E-1,-1.258788586E-2,7.787269959E-1
3.669296583E0,-2.577615468E-1,8.280575377E-1,4.286225420E-1,9.673869878E-1
3.679242583E0,-3.540490905E-1,7.487347949E-1,8.352367491E-1,1.176254640E0
3.689188583E0,-3.571250183E-1,4.619850004E-1,8.529444569E-1,1.033674352E0
3.699134583E0,-5.111779911E-1,9.142121673E-2,5.802659869E-1,7.786972409E-1
3.709081583E0,-8.991463776E-1,-1.755684972E-1,4.703085484E-1,1.029795434E0
3.719027583E0,-1.056543994E0,-1.340181828E-1,7.790555316E-1,1.319535375E0
3.728973583E0,-1.033031829E0,2.242436439E-1,1.057708687E0,1.495388791E0
3.738920583E0,-7.859950802E-1,5.836538637E-1,1.033920459E0,1.423879073E0
3.748866583E0,-4.084958045E-1,6.804586118E-1,6.454086471E-1,1.022958976E0
3.758812583E0,-1.757452293E-1,5.111823034E-1,2.981933802E-1,6.173435227E-1
3.768758583E0,-4.028825505E-1,2.634673512E-1,1.700919950E-1,5.105493918E-1
3.778705583E0,-9.141446319E-1,2.332261366E-1,8.241884351E-2,9.470204352E-1
3.788651583E0,-1.387453789E0,4.133507842E-1,-2.330530224E-1,1.466356232E0
3.798597583E0,-1.861103546E0,7.140263075E-1,-5.614677368E-1,2.070938433E0
3.808543583E0,-2.261199715E0,1.222420074E0,-6.070596467E-1,2.641184659E0
3.818490583E0,-2.774264676E0,1.533528784E0,-2.610576771E-1,3.180629833E0
3.828436583E0,-3.654429091E0,1.544758946E0,4.509396465E-1,3.993053813E0
3.838382583E0,-4.775133048E0,1.381846163E0,1.184065263E0,5.110127688E0
3.848329583E0,-5.752225880E0,1.209019425E0,1.405737301E0,6.043668414E0
3.858275583E0,-6.945075415E0,1.342400846E0,1.058747737E0,7.152416327E0
3.868221583E0,-8.997879049E0,1.966855411E0,6.228816640E-1,9.231377424E0
3.878167583E0,-1.156590834E1,3.236595832E0,5.406558152E-1,1.202239980E1
3.888114583E0,-1.510919940E1,4.629324247E0,5.247420331E-1,1.581119552E1
3.898060583E0,-1.921832435E1,5.610978200E0,3.864407283E-1,2.002439521E1
3.908006583E0,-2.368146430E1,5.900107226E0,1.003334844E0,2.442600453E1
3.917953583E0,-2.949712604E1,5.434030344E0,2.451882534E0,3.009353515E1
3.927899583E0,-3.475453538E1,4.009580784E0,4.894573245E0,3.532578824E1
3.937845583E0,-3.969770133E1,2.035323383E0,8.973273380E0,4.075008794E1
3.947791583E0,-4.275561268E1,8.614047933E-1,1.473150552E1,4.523053934E1
3.957738583E0,-4.116822461E1,1.698651230E-1,2.148770593E1,4.643891771E1
3.967684583E0,-3.752060753E1,-9.422343636E-1,2.822602087E1,4.696160186E1
3.977630583E0,-3.304654966E1,-2.191889598E0,3.339220430E1,4.703103372E1
3.987577583E0,-2.765795920E1,-4.267272255E0,3.595689366E1,4.556391688E1
3.997523583E0,-2.123487466E1,-6.262541041E0,3.724612753E1,4.332912806E1
4.007469583E0,-1.416642007E1,-5.837656624E0,3.973981999E1,4.259130176E1
4.017415583E0,-6.689572556E0,-3.874560388E0,4.262959817E1,4.332488014E1
4.027362583E0,1.501182133E0,-2.374891076E0,4.274335692E1,4.283559520E1
4.037308583E0,8.584609541E0,-1.365700246E0,3.936304413E1,4.031141155E1
4.047254583E0,1.276148501E1,-7.487768948E-1,3.526364543E1,3.750921028E1
4.057201583E0,1.502840257E1,-1.477603090E-1,3.234950074E1,3.567022449E1
4.067147583E0,1.604931590E1,2.387535095E-1,3.130345023E1,3.517873705E1
4.077093583E0,1.739069524E1,2.631890237E-2,3.123213993E1,3.574749695E1
4.087039583E0,2.029510549E1,2.617804295E-1,3.090995835E1,3.697817411E1
4.096986583E0,2.331398551E1,8.770969659E-1,2.856392679E1,3.688101318E1
4.106932583E0,2.524083953E1,1.304895635E0,2.475226490E1,3.537622578E1
4.116878583E0,2.520428741E1,1.502692323E0,2.137589079E1,3.308236533E1
4.126824583E0,2.358092961E1,1.438125029E0,1.955719506E1,3.066940370E1
4.136771583E0,2.211214412E1,8.155450809E-1,1.895471667E1,2.913577381E1
4.146717583E0,2.109249028E1,-6.328499973E-2,1.870249351E1,2.819007653E1
4.156663583E0,2.020212774E1,-8.420277053E-1,1.744285591E1,2.670371132E1
4.166610583E0,1.932982608E1,-1.760486121E0,1.480873321E1,2.441393182E1
4.176556583E0,1.814598476E1,-2.689525657E0,1.163579192E1,2.172330465E1
4.186502583E0,1.680164322E1,-3.089376975E0,9.105903434E0,1.935864000E1
4.196448583E0,1.622595210E1,-3.009504009E0,6.880977652E0,1.787977878E1
4.206395583E0,1.574810126E1,-2.939442086E0,4.850933136E0,1.673841586E1
4.216341583E0,1.499957931E1,-2.852399849E0,3.189906399E0,1.559804690E1
4.226287583E0,1.430490436E1,-2.422631838E0,1.550438932E0,1.459120607E1
4.236234583E0,1.391138090E1,-1.558957155E0,1.421323639E-1,1.399918096E1
4.246180583E0,1.387820146E1,-4.358426839E-1,-8.370487281E-1,1.391025108E1
4.256126583E0,1.342995859E1,3.157092994E-1,-1.683746093E0,1.353877620E1
4.266072583E0,1.224267677E1,5.878106493E-1,-1.745026082E0,1.238037850E1
4.276019583E0,1.076496726E1,6.081092584E-1,-1.273726467E0,1.085710349E1
4.285965583E0,9.262367324E0,5.448587573E-1,-1.119993812E0,9.345731948E0
4.295911583E0,7.787639310E0,5.502533984E-1,-1.019949195E0,7.873398325E0
4.305857583E0,6.121779850E0,6.006944042E-1,-8.686934938E-1,6.212217855E0
4.315804583E0,4.755801568E0,3.910401481E-1,-2.707775402E-1,4.779527323E0
4.325750583E0,3.663157522E0,1.531403321E-1,2.771018887E-1,3.676813900E0
4.335696583E0,2.971059735E0,1.376645064E-1,6.524416780E-1,3.044967588E0
4.345643583E0,2.591385113E0,1.647312677E-1,7.953837352E-1,2.715704048E0
4.355589583E0,2.489737701E0,1.573994440E-1,6.779339303E-1,2.585181389E0
4.365535583E0,2.766496650E0,1.665643698E-1,4.038145602E-2,2.771800510E0
4.375481583E0,3.167712708E0,2.406363130E-1,-9.388798159E-1,3.312673383E0
4.385428583E0,3.224249436E0,5.064016199E-1,-1.548309376E0,3.612407639E0
4.395374583E0,2.912130911E0,9.419963819E-1,-1.879131973E0,3.591517869E0
4.405320208E0,2.438315240E0,1.339810529E0,-2.086267688E0,3.477497135E0
4.415267208E0,1.757461794E0,1.547253953E0,-1.816140065E0,2.963280529E0
4.425213208E0,7.789937704E-1,1.611648170E0,-8.779665931E-1,1.993756870E0
4.435159208E0,-3.911663018E-2,1.479556060E0,4.718030602E-1,1.553452404E0
4.445105208E0,-3.969565071E-1,1.191069642E0,1.172630886E0,1.717930312E0
4.455052208E0,-7.091585735E-1,1.343655658E0,1.249227511E0,1.966948343E0
4.464998208E0,-7.633210398E-1,1.612926956E0,1.384240013E0,2.258387209E0
4.474944208E0,-3.581605967E-1,1.627961901E0,1.522622850E0,2.257635778E0
4.484890208E0,2.290690586E-1,1.432837976E0,1.524424377E0,2.104606134E0
4.494837208E0,7.073373851E-1,1.132207476E0,1.106792846E0,1.734131007E0
4.504783208E0,8.432154941E-1,9.163703746E-1,1.054296836E0,1.631652185E0
4.514729208E0,6.506239980E-1,8.205163836E-1,1.120280765E0,1.533488739E0
4.524676208E0,4.381804007E-1,7.805682063E-1,1.030592663E0,1.365067773E0
4.534622208E0,1.612967594E-1,7.812640250E-1,1.104395780E0,1.362380329E0
4.544568208E0,1.673217304E-2,5.358136994E-1,1.171648116E0,1.288462492E0
4.554515208E0,-1.217619802E-1,1.316892368E-1,1.084238966E0,1.098973234E0
4.564461208E0,-3.840300675E-1,-1.138979137E-1,8.047142833E-1,8.988976056E-1
4.574407208E0,-7.753118518E-1,-2.072826254E-1,5.030182748E-1,9.471546543E-1
4.584353208E0,-1.210023392E0,-2.164750332E-1,1.700199281E-1,1.240937075E0
4.594300208E0,-1.358581115E0,-3.174669725E-1,-1.579732020E-1,1.404095245E0
4.604246208E0,-1.128426886E0,-3.081617135E-1,-3.873936783E-1,1.232227552E0
4.614192208E0,-7.972045581E-1,-9.556981623E-2,-3.880865733E-1,8.917846633E-1
4.624138208E0,-5.789426158E-1,2.276250887E-1,-2.553917617E-1,6.724676092E-1
4.634085208E0,-3.966227773E-1,3.047615576E-1,-1.717895879E-1,5.288675609E-1
4.644031208E0,-2.483222587E-1,1.483391833E-1,-2.423482315E-1,3.773607330E-1
4.653977208E0,-1.379510200E-1,5.282783926E-2,-3.408681142E-1,3.715001155E-1
4.663924208E0,1.681074500E-4,-3.437344193E-2,-4.905792005E-1,4.917819779E-1
4.673870208E0,3.202572638E-1,-2.578095853E-2,-5.288262767E-1,6.187783155E-1
4.683816208E0,-1.338413045E-1,1.722882092E-1,-4.189209880E-1,4.723256461E-1
4.693762208E0,-7.576818388E-1,2.796588761E-1,-4.231145380E-1,9.117657419E-1
4.703709208E0,-1.305289445E0,1.810999632E-1,-4.590357379E-1,1.395453884E0
4.713655208E0,-1.586577209E0,-1.964664459E-3,-2.464648906E-1,1.605607687E0
4.723601208E0,-1.542391701E0,-3.549347609E-1,1.008649816E-1,1.585914433E0
4.733548208E0,-1.140232488E0,-7.728978288E-1,4.055400735E-1,1.435954014E0
4.743494208E0,-5.519167851E-1,-8.739745528E-1,5.854635769E-1,1.187944130E0
4.753440208E0,-4.708214588E-2,-6.718281215E-1,5.361592698E-1,8.608347785E-1
4.763386208E0,2.617769577E-1,-3.645136696E-1,3.277446234E-1,5.557102924E-1
4.773333208E0,3.799010196E-1,-9.993242383E-2,-2.434254348E-2,3.935782431E-1
4.783279208E0,4.121052176E-1,1.890229404E-1,-3.714701752E-1,5.861317884E-1
4.793225208E0,3.873382028E-1,4.648092055E-1,-6.487316928E-1,8.870914779E-1
4.803171208E0,2.879163506E-1,4.520114046E-1,-7.065541506E-1,8.868082671E-1
4.813118208E0,7.480339330E-2,1.801807809E-1,-4.871110708E-1,5.247264589E-1
4.823064208E0,-2.369661253E-1,-1.409366083E-1,-1.293901116E-1,3.045617722E-1
4.833010208E0,-5.378265668E-1,-3.224371058E-1,3.566099882E-1,7.213832455E-1
4.842957208E0,-7.623064747E-1,-3.843643820E-1,8.377123871E-1,1.196080759E0
4.852903208E0,-7.765077536E-1,-5.420784062E-1,1.045559927E0,1.410676735E0
4.862849208E0,-5.059961886E-1,-6.167479348E-1,9.475396154E-1,1.238645018E0
4.872795208E0,-1.736404144E-1,-4.558097559E-1,7.020950639E-1,8.548982430E-1
4.882742208E0,5.796662819E-2,-2.477237231E-1,3.762847725E-1,4.542217553E-1
4.892688208E0,2.407120344E-1,-1.105883896E-2,-3.281691313E-2,2.431903189E-1
4.902634208E0,3.665096898E-1,1.873465437E-1,-3.438145262E-1,5.363175445E-1
4.912581208E0,3.907956249E-1,2.273017377E-1,-5.109741426E-1,6.822623211E-1
4.922527208E0,2.787138929E-1,1.756491888E-1,-5.539319549E-1,6.444956806E-1
4.932473208E0,6.641512390E-2,1.291240633E-2,-4.238564035E-1,4.292224944E-1
4.942419208E0,-1.653819532E-1,-2.820731914E-1,-1.939832065E-1,3.801920043E-1
4.952366208E0,-3.930768795E-1,-5.303792971E-1,7.879700504E-2,6.648462981E-1
4.962312208E0,-4.994334199E-1,-4.895177847E-1,5.284163868E-1,8.765188420E-1
4.972258208E0,-5.654358766E-1,-2.490878785E-1,8.683050194E-1,1.065699821E0
4.982205208E0,-6.912283791E-1,-1.060392559E-2,9.604220548E-1,1.183351021E0
4.992151208E0,-7.218031043E-1,4.372138560E-2,8.009877797E-1,1.079116631E0
5.002097208E0,-6.446302365E-1,6.103265226E-2,4.887172278E-1,8.112445101E-1
5.012043208E0,-4.525815082E-1,2.260147655E-1,2.777982920E-1,5.771348082E-1
5.021990208E0,-1.025250793E-1,5.312353295E-1,2.787817937E-1,6.086391835E-1
5.031936208E0,2.757818797E-1,7.407474983E-1,5.666595161E-1,9.725561724E-1
5.041882208E0,5.249344430E-1,5.891297811E-1,1.231010218E0,1.462195687E0
5.051829208E0,5.667136028E-1,6.866619229E-2,5.352606259E-1,7.825492261E-1
5.061775208E0,-3.095109585E-1,-2.669084376E-1,-3.715574010E0,3.737984400E0
5.071721208E0,-1.797317147E-2,-2.484481931E-3,-2.355750216E0,2.355820088E0
5.081667208E0,1.498850410E-1,8.337661743E-2,-1.105515522E-1,2.040559520E-1
5.091614208E0,-3.584629709E-1,1.924581796E-1,1.165323694E0,1.234307565E0
5.101560208E0,-4.441726273E-1,-4.698062360E-2,1.719378440E0,1.776445531E0
5.111506208E0,-2.862942964E-1,-2.271000087E-1,1.370873863E0,1.418743805E0
5.121452208E0,-5.005662449E-1,-2.649151218E-1,9.236817330E-1,1.083482594E0
5.131399208E0,-3.888574556E-1,-3.594990975E-1,2.869782744E-1,6.023340036E-1