"Time (s)","Linear Acceleration x (m/s^2)","Linear Acceleration y (m/s^2)","Linear Acceleration z (m/s^2)","Absolute acceleration (m/s^2)"
1.561291749E-3,-1.112322412E-1,1.104638439E-1,-7.259867871E-1,7.427191174E-1
1.150729181E-2,2.131749012E-1,1.578268754E-1,-2.484423641E-1,3.634232648E-1
2.145429165E-2,2.489320136E-1,1.045616645E-1,2.882420222E-1,3.949477844E-1
3.140129172E-2,2.488832259E-1,1.118209827E-1,5.858570945E-1,6.462780574E-1
4.134729179E-2,2.016894713E-1,9.368993640E-2,6.478118527E-1,6.849209031E-1
5.129429186E-2,1.654637776E-1,6.489356875E-2,4.957737207E-1,5.266697439E-1
6.124029169E-2,6.490771171E-2,1.249023736E-1,1.675800129E-1,2.188530893E-1
7.118729176E-2,-2.500057451E-2,1.852327752E-1,-1.050206892E-1,2.143957903E-1
8.113429183E-2,5.641718913E-2,2.083427256E-1,-2.047098505E-1,2.974822910E-1
9.108029166E-2,2.182103040E-1,2.011044574E-1,-2.759476483E-1,4.052232029E-1
1.010272917E-1,1.260528863E-1,1.600377077E-1,-3.327942789E-1,3.901966556E-1
1.109732918E-1,4.518728256E-3,1.303695202E-1,-3.386824250E-1,3.629358286E-1
1.209206667E-1,-9.715017244E-2,1.250824678E-1,-3.009281413E-1,3.400610621E-1
1.308676668E-1,-8.590619601E-2,4.112756073E-2,-5.118067861E-2,1.081240613E-1
1.408136669E-1,-3.046386930E-1,-1.307326323E-1,1.603025866E-1,3.682291048E-1
1.507606667E-1,-4.820771663E-1,-2.104190719E-1,1.720999471E-1,5.534374146E-1
1.607066668E-1,-4.283538259E-1,-2.390563953E-1,1.385813498E-1,5.097447899E-1
1.706536668E-1,-4.216305877E-1,-3.007223010E-1,1.245983001E-1,5.326640510E-1
1.806006667E-1,-5.481218690E-1,-4.614341927E-1,3.796129346E-1,8.108422026E-1
1.905466667E-1,-6.344876562E-1,-5.466386497E-1,5.745614433E-1,1.015632439E0
2.004936668E-1,-5.490944803E-1,-5.016273683E-1,3.703029978E-1,8.308183166E-1
2.104396669E-1,-3.864342964E-1,-3.841071045E-1,5.152917266E-2,5.472887618E-1
2.203866667E-1,-2.141201767E-1,-2.517898768E-1,-1.157748516E-1,3.502133755E-1
2.303336668E-1,-7.798204936E-2,-1.636050940E-1,-1.489671926E-1,2.346040308E-1
2.402796668E-1,2.399603383E-1,-5.416392803E-2,-1.609679997E-1,2.939819586E-1
2.502266667E-1,4.223831975E-1,-9.532423317E-2,-9.113351544E-2,4.424924774E-1
2.601726667E-1,1.681724637E-1,-2.542141324E-1,8.309478164E-2,3.159296526E-1
2.701196668E-1,-2.274363698E-1,-4.300200266E-1,2.339049800E-1,5.397740872E-1
2.800666667E-1,-3.548562255E-1,-5.249402171E-1,2.340079093E-1,6.754590098E-1
2.900126667E-1,-3.189994911E-1,-4.759060514E-1,2.194155979E-1,6.135066827E-1
2.999596668E-1,-1.682093012E-1,-2.592678809E-1,1.293322424E-1,3.350239275E-1
3.099056669E-1,-1.972163513E-2,-2.939746141E-2,-1.246263850E-1,1.295565107E-1
3.198526667E-1,1.367950255E-1,1.247006446E-1,-2.403790355E-1,3.033895358E-1
3.297996668E-1,2.823116482E-1,1.915606320E-1,-1.529315865E-1,3.738761995E-1
3.397456668E-1,3.507169085E-1,1.897398090E-1,-2.263926784E-2,3.993946438E-1
3.496926667E-1,3.483899359E-1,1.524532843E-1,4.032355031E-2,3.824180174E-1
3.596386667E-1,2.900860696E-1,1.293550283E-1,-3.190259133E-3,3.176363154E-1
3.695856668E-1,2.099734775E-1,1.332486892E-1,-9.980965057E-2,2.679664919E-1
3.795326669E-1,1.550663684E-1,1.018503106E-1,-3.225335848E-1,3.720846378E-1
3.894786667E-1,1.165510513E-1,5.847566485E-2,-4.176806474E-1,4.375621946E-1
3.994256668E-1,4.178131599E-2,-3.413546026E-2,-2.575464606E-1,2.631370126E-1
4.093716668E-1,9.719731562E-2,-6.948246360E-2,8.187972109E-2,1.448427411E-1
4.193186667E-1,2.010408324E-1,-1.361588484E-1,2.742390919E-1,3.662836712E-1
4.292656668E-1,1.517631666E-1,-2.325998998E-1,1.743090069E-1,3.278999878E-1
4.392116668E-1,2.085845811E-1,-2.200301403E-1,1.868537148E-2,3.037596636E-1
4.491586667E-1,3.974203010E-1,-1.534747928E-1,-9.824492653E-2,4.372064424E-1
4.591046667E-1,4.817441308E-1,-1.650704062E-1,-1.865554154E-1,5.423362145E-1
4.690516668E-1,4.581588017E-1,-2.864241046E-1,-9.689538002E-2,5.489416817E-1
4.789986669E-1,2.312991136E-1,-4.984973538E-1,1.891948485E-1,5.812001225E-1
4.889446667E-1,-2.662017651E-1,-7.798887599E-1,3.881030917E-1,9.108863086E-1
4.988916668E-1,-4.386994508E-1,-7.676441056E-1,6.728759426E-1,1.111079077E0
5.088376668E-1,-2.299289647E-1,-5.260161048E-1,1.018339384E0,1.169006147E0
5.187846667E-1,1.294387165E-1,-3.004486513E-1,1.009486699E0,1.061172544E0
5.287306667E-1,4.023518426E-1,-7.911107361E-2,7.741877246E-1,8.760777364E-1
5.386776668E-1,4.604243420E-1,1.940591472E-1,4.057260150E-1,6.436327575E-1
5.486246669E-1,4.317750318E-1,3.665280354E-1,7.810710669E-2,5.717282562E-1
5.585706667E-1,3.869681106E-1,4.681222379E-1,-4.010839105E-2,6.086800730E-1
5.685176668E-1,3.214529463E-1,5.662034333E-1,-4.950018883E-2,6.529690599E-1
5.784636668E-1,2.810298837E-1,5.023880911E-1,-5.461298277E-3,5.756747479E-1
5.884106667E-1,1.491840329E-1,4.045039469E-1,6.126010895E-2,4.354677022E-1
5.983576667E-1,-1.845787459E-1,4.196675313E-1,9.460327148E-2,4.681238396E-1
6.083036668E-1,-4.238031207E-1,4.545029032E-1,1.448437178E-1,6.380922165E-1
6.182506667E-1,-5.559767627E-1,4.478476024E-1,1.854596472E-1,7.376129855E-1
6.281966667E-1,-6.919582578E-1,5.974854523E-1,1.457476974E-1,9.257631919E-1
6.381436668E-1,-1.133602403E0,7.812441444E-1,-6.518242121E-2,1.378276304E0
6.480906669E-1,-1.968814959E0,6.886043680E-1,-3.445600462E-1,2.114031680E0
6.580366667E-1,-2.915855880E0,5.308640313E-1,-2.873099577E-1,2.977680162E0
6.679836668E-1,-3.929300852E0,3.647206610E-1,2.100542057E-1,3.951777969E0
6.779296668E-1,-4.727257800E0,1.892936665E-1,4.941797698E-1,4.756785895E0
6.878766667E-1,-5.382011175E0,3.835095191E-1,6.451817751E-1,5.434094530E0
6.978236667E-1,-5.825063476E0,1.061904649E0,6.172414398E-1,5.953149837E0
7.077696668E-1,-6.142943847E0,1.902724904E0,2.067154455E-1,6.434194001E0
7.177166669E-1,-6.912116999E0,2.323486449E0,-7.953207314E-2,7.292617914E0
7.276626667E-1,-8.268696758E0,2.174583009E0,3.858402193E-1,8.558564717E0
7.376096668E-1,-9.952541084E0,1.696419348E0,1.208300802E0,1.016813176E1
7.475566668E-1,-1.197553269E1,9.922263032E-1,2.102914857E0,1.219918633E1
7.575026667E-1,-1.448675043E1,6.066193879E-2,3.441082318E0,1.488995183E1
7.674496667E-1,-1.726242370E1,-6.810146821E-1,4.203553392E0,1.777990197E1
7.773956668E-1,-1.956624421E1,-2.848593897E-1,3.707012517E0,1.991635004E1
7.873426666E-1,-2.204210851E1,6.774063653E-1,3.116527351E0,2.227164497E1
7.972896667E-1,-2.478458831E1,1.842920752E0,2.736878164E0,2.500325332E1
8.072356668E-1,-2.718322376E1,2.589262866E0,2.913098041E0,2.746121039E1
8.171826669E-1,-2.931677919E1,2.161484077E0,4.306145130E0,2.971007307E1
8.271286667E-1,-3.144821326E1,4.422108865E-1,8.078303815E0,3.247221366E1
8.370756668E-1,-3.305288804E1,-1.280705119E0,1.442083243E1,3.608453992E1
8.470226668E-1,-3.228944282E1,-2.176115565E0,2.108782187E1,3.862693138E1
8.569686667E-1,-2.893644120E1,-2.003810399E0,2.620920393E1,3.909290545E1
8.669156667E-1,-2.449325196E1,-1.692468385E0,3.004389449E1,3.879973501E1
8.768616668E-1,-1.863677432E1,-2.930145013E0,3.400605436E1,3.888864667E1
8.868086669E-1,-9.744678415E0,-3.520968148E0,3.691717487E1,3.834362756E1
8.967556667E-1,2.097351231E0,-1.005246298E0,3.826217480E1,3.833279827E1
9.067016668E-1,1.291031419E1,1.733590098E0,3.507006284E1,3.741110603E1
9.166486668E-1,2.168128385E1,4.155277610E0,2.782539773E1,3.551896902E1
9.265946667E-1,2.854386850E1,7.360168085E0,1.876328701E1,3.494260212E1
9.365416667E-1,3.345893975E1,9.840404352E0,1.092111365E1,3.654592905E1
9.464886668E-1,3.622318288E1,1.040794797E1,5.486210897E0,3.808599308E1
9.564346669E-1,3.571376410E1,8.440964502E0,2.870057856E0,3.680978212E1
9.663816667E-1,3.258583584E1,4.625603079E0,3.314666101E0,3.307899504E1
9.763276668E-1,2.996818007E1,1.071478295E0,6.080059966E0,3.059750009E1
9.862746669E-1,2.625218564E1,-1.290375829E0,8.038899429E0,2.748574585E1
9.962216667E-1,2.116795679E1,-3.608256553E0,6.927788122E0,2.256315931E1
1.006167667E0,1.698760690E1,-4.905383577E0,4.912389711E0,1.835138003E1
1.016114667E0,1.479015894E1,-5.139103804E0,3.806235673E0,1.611355390E1
1.026060667E0,1.294937593E1,-5.043764952E0,1.936214247E0,1.403120905E1
1.036007667E0,1.028125050E1,-4.944323110E0,-4.738209343E-1,1.141818502E1
1.045954667E0,8.447791711E0,-5.106792675E0,-1.522952925E0,9.988188115E0
1.055900667E0,8.045828964E0,-5.064765227E0,-1.251794146E0,9.589275213E0
1.065847667E0,8.376570286E0,-4.341818408E0,-1.547474978E0,9.561014363E0
1.075793667E0,8.566711214E0,-2.892096596E0,-1.895569081E0,9.238286956E0
1.085740667E0,8.358759082E0,-1.501905288E0,-1.458751667E0,8.616990734E0
1.095687667E0,7.740441170E0,-7.632043147E-1,4.741121256E-1,7.792412504E0
1.105633667E0,6.709931976E0,-4.107405871E-1,2.604153385E0,7.209265553E0
1.115580667E0,5.430047806E0,-7.314515948E-2,3.437956982E0,6.427310293E0
1.125526333E0,4.681803592E0,-2.248950237E-1,2.839889731E0,5.480404760E0
1.135473334E0,4.545679243E0,-8.734980047E-2,1.032041749E0,4.662181886E0
1.145419333E0,5.002399995E0,5.064483976E-1,-5.114033282E-1,5.053912252E0
1.155366333E0,6.111303978E0,1.298901654E0,-6.065012741E-1,6.277182936E0
1.165313334E0,7.071057769E0,2.023123752E0,4.744138420E-1,7.370071654E0
1.175259333E0,6.096152088E0,1.715781818E0,1.131405823E0,6.433277288E0
1.185206333E0,4.084554660E0,7.028277200E-1,6.453162611E-1,4.194518644E0
1.195153333E0,2.425990917E0,1.410050207E-1,-3.448184931E-1,2.454427456E0
1.205099334E0,1.571358223E0,-1.614047867E-1,-7.952985120E-1,1.768535522E0
1.215046333E0,1.323912681E0,-3.356138062E-1,-6.937709677E-1,1.531894112E0
1.224992333E0,1.451044890E0,-2.730825126E-2,-7.620091438E-1,1.639187283E0
1.234939334E0,1.624354023E0,2.716955531E-1,-9.856744981E-1,1.919348505E0
1.244885333E0,1.589773882E0,5.253501070E-1,-8.952356136E-1,1.898636494E0
1.254832333E0,1.429562658E0,5.809068418E-1,-9.133596432E-1,1.793133567E0
1.264779333E0,1.280137501E0,4.718194324E-1,-9.075112581E-1,1.638579349E0
1.274725333E0,1.208115299E0,5.056052291E-1,-6.300924504E-1,1.453339506E0
1.284672333E0,9.356676480E-1,3.278177136E-1,-3.377164285E-1,1.047373280E0
1.294618333E0,3.930762948E-1,5.757870197E-2,-4.135665464E-1,5.734645314E-1
1.304565334E0,5.585867040E-2,3.370335102E-2,-4.311350906E-1,4.360430865E-1
1.314512333E0,3.129992612E-1,1.721560621E-1,-4.424003363E-3,3.572475599E-1
1.324458333E0,5.584287561E-1,1.468919975E-1,9.918164134E-2,5.858813297E-1
1.334405334E0,2.276877270E-1,-2.936120868E-2,5.515563408E-2,2.361057508E-1
1.344351333E0,-7.908768475E-2,-1.948350728E-1,-1.111508918E-1,2.378446724E-1
1.354298333E0,-1.872163700E-1,-4.483089477E-1,1.097674588E-1,4.980760753E-1
1.364245333E0,-3.734426603E-2,-5.144427109E-1,3.651516008E-1,6.319664458E-1
1.374191334E0,3.298322256E-1,-1.543998224E-1,1.379311395E-1,3.894272736E-1
1.384138333E0,1.412797668E-1,-1.161642945E-1,-5.289052141E-1,5.596381342E-1
1.394084333E0,-1.266210164E-1,-3.249367905E-1,-1.043876513E0,1.100588467E0
1.404031334E0,-8.023651645E-2,-3.432701504E-1,-8.910256183E-1,9.582269811E-1
1.413978333E0,-5.081383891E-2,-3.323563224E-1,-3.026354734E-1,4.523615822E-1
1.423924333E0,9.236517660E-2,-2.815446031E-1,1.674245318E-1,3.403375725E-1
1.433871333E0,2.181946993E-1,-6.576129556E-2,2.856973139E-1,3.654537317E-1
1.443817333E0,2.039120711E-1,9.079731882E-2,4.540561759E-1,5.059558249E-1
1.453764333E0,2.125408072E-1,2.262679499E-1,2.238442973E-1,3.827232020E-1
1.463711333E0,2.968731520E-1,3.555791241E-1,1.610299985E-1,4.904088522E-1
1.473657334E0,2.392177054E-1,3.144948328E-1,2.858376106E-1,4.876835552E-1
1.483604333E0,-9.630459197E-2,1.560785580E-1,2.255399716E-1,2.906946327E-1
1.493550333E0,-3.914460911E-1,-1.031863993E-1,5.568981743E-1,6.884860578E-1
1.503497333E0,-5.530018821E-1,-2.879858959E-1,9.992599189E-1,1.177823138E0
1.513444333E0,-5.279879321E-1,-3.483274072E-1,1.001047997E0,1.184145402E0
1.523390333E0,-2.681587185E-1,-3.278381789E-1,7.664869416E-1,8.757221029E-1
1.533337333E0,-2.643745467E-2,-2.351182956E-1,3.618011828E-1,4.322957874E-1
1.543283334E0,2.735364758E-1,-8.883557796E-2,-1.416733575E-1,3.206014718E-1
1.553230333E0,5.146876361E-1,-7.532792509E-2,-3.671525180E-1,6.366935138E-1
1.563177333E0,5.096075021E-1,-1.789739156E-1,-2.417718422E-1,5.917643892E-1
1.573123334E0,2.555559222E-1,-3.637962162E-1,-2.894373575E-2,4.455269422E-1
1.583070333E0,-2.006662086E-1,-7.257447124E-1,1.503085073E-1,7.678313370E-1
1.593016333E0,-4.373146474E-1,-9.889559555E-1,1.272588015E-1,1.088794189E0
1.602963333E0,-2.986694898E-1,-9.615588266E-1,-1.494316259E-2,1.006986663E0
1.612910333E0,-9.376858145E-2,-7.736462724E-1,-2.102764181E-1,8.071785885E-1
1.622856333E0,-1.133044213E-3,-6.343854761E-1,-4.486755681E-1,7.770173624E-1
1.632803333E0,1.102236696E-2,-4.023539257E-1,-6.307040691E-1,7.481963625E-1
1.642749334E0,-6.691772863E-3,-2.865445572E-1,-4.489258289E-1,5.326227210E-1
1.652696333E0,-1.216980263E-1,-3.528321022E-1,-1.179570508E-1,3.914265803E-1
1.662642333E0,-2.804958319E-1,-4.003600252E-1,6.554027081E-2,4.932155599E-1
1.672589333E0,-3.105375834E-1,-3.938801408E-1,8.981557131E-2,5.095507755E-1
1.682536333E0,5.042638779E-3,-1.892322707E-1,-1.384948202E-1,2.345529699E-1
1.692482333E0,3.255600306E-1,2.852154851E-2,-3.304156315E-1,4.647335815E-1
1.702429333E0,3.105869193E-1,5.618940353E-2,-4.252001667E-1,5.295438275E-1
1.712376334E0,1.864308697E-1,8.368827403E-2,-6.428557527E-1,6.745544568E-1
1.722322333E0,-9.921131596E-2,3.339695692E-2,-8.476229060E-1,8.540625461E-1
1.732269333E0,-1.746852022E-1,3.987918019E-2,-8.809052575E-1,8.989434585E-1
1.742215334E0,-3.149880454E-2,1.086126155E-1,-6.667977619E-1,6.763195474E-1
1.752162333E0,-4.033661518E-2,9.566746473E-2,-1.898158228E-1,2.163546924E-1
1.762108333E0,-1.362545600E-1,1.021110964E-1,2.881414318E-1,3.346901042E-1
1.772055333E0,-2.921795555E-1,5.635312557E-2,5.679026341E-1,6.411380267E-1
1.782002333E0,-4.710465766E-1,-1.857543468E-2,5.274738157E-1,7.074309510E-1
1.791948333E0,-5.958207135E-1,1.435140610E-2,2.863720644E-1,6.612240503E-1
1.801895333E0,-4.758713701E-1,1.413435745E-1,7.690141082E-2,5.023399187E-1
1.811841334E0,-3.903376417E-1,1.826711100E-1,-2.038269210E-1,4.767364290E-1
1.821788333E0,-3.084924832E-1,2.379179424E-1,-5.075769103E-1,6.398491067E-1
1.831735333E0,-1.283951347E-1,2.647777122E-1,-4.359169436E-1,5.259430855E-1
1.841681333E0,-8.638098992E-2,1.868641484E-1,-2.369344407E-1,3.138754762E-1
1.851628333E0,-9.388910718E-3,9.335255206E-2,-2.877350503E-1,3.026455184E-1
1.861574333E0,-1.468330868E-1,4.020545483E-3,-4.988815159E-1,5.200566191E-1
1.871521333E0,-3.408275857E-1,-1.680606723E-2,-8.275078994E-1,8.951062566E-1
1.881468334E0,-1.681032839E-1,1.059497935E-1,-6.558260465E-1,6.852677404E-1
1.891414333E0,1.207015876E-1,1.867746860E-1,-2.832823956E-1,3.601424333E-1
1.901361333E0,3.020509346E-1,2.911223423E-1,-2.570728362E-1,4.920095816E-1
1.911307334E0,1.503920311E-1,2.141495955E-1,-4.428213358E-1,5.143622728E-1
1.921254333E0,-2.328872904E-2,-4.372547865E-3,-5.543300772E-1,5.548362989E-1
1.931201333E0,-8.801788140E-2,-1.033892977E-1,-4.900644994E-1,5.085269982E-1
1.941147333E0,-6.340713345E-2,-1.510055137E-1,-3.628092062E-1,3.980623693E-1
1.951094333E0,-1.005749232E-1,-2.282232589E-1,-1.431398392E-1,2.875590107E-1
1.961040333E0,-6.465328474E-2,-2.679755545E-1,6.656762660E-2,2.835880709E-1
1.970987333E0,-1.790236535E-1,-3.092299998E-1,2.351258969E-1,4.277345540E-1
1.980934334E0,-3.753141347E-1,-5.550779361E-1,3.037610990E-1,7.356922047E-1
1.990880333E0,-4.672051021E-1,-8.040734285E-1,4.776415050E-2,9.311799504E-1
2.000827333E0,-2.785866977E-1,-8.034606403E-1,-3.674472177E-1,9.263784359E-1
2.010773333E0,-1.521469267E-2,-6.655569828E-1,-7.369181567E-1,9.930991662E-1
2.020720333E0,1.818338801E-1,-5.159401828E-1,-8.555938303E-1,1.015528746E0
2.030667333E0,-4.078348864E-2,-6.063001299E-1,-7.582406133E-1,9.716954092E-1
2.040613333E0,-2.613195958E-1,-7.423812103E-1,-4.882021612E-1,9.261528723E-1
2.050560334E0,-1.881529113E-1,-7.449937463E-1,-7.410174569E-2,7.719509497E-1
2.060506333E0,-7.653108107E-2,-7.102074909E-1,2.578516853E-1,7.594334587E-1
2.070453333E0,-5.337565027E-2,-6.441146582E-1,3.132856286E-1,7.182482426E-1
2.080400334E0,-3.144345699E-2,-5.812524122E-1,1.878195651E-1,6.116528809E-1
2.090346333E0,-5.956842723E-2,-5.492646343E-1,-2.526424191E-1,6.075098583E-1
2.100293333E0,-3.031899356E-1,-5.145918149E-1,-5.888485301E-1,8.387320575E-1
2.110239333E0,-5.264667424E-1,-5.281363052E-1,-5.398716670E-1,9.206283749E-1
2.120186833E0,-8.731859095E-1,-5.682528824E-1,-3.799041259E-1,1.108914837E0
2.130132833E0,-1.329315362E0,-5.092451209E-1,-1.537437648E-1,1.431798544E0
2.140079833E0,-1.857853663E0,-2.677434200E-1,1.827161153E-1,1.885919392E0
2.150026833E0,-2.908835421E0,9.259241402E-2,-1.803575495E-2,2.910364607E0
2.159972833E0,-5.025761960E0,3.256963438E-1,-7.368947679E-1,5.089928810E0
2.169919834E0,-8.710231707E0,5.920381862E-1,-1.234302785E0,8.817150841E0
2.179865833E0,-1.395234883E1,1.216091048E0,-8.367254502E-1,1.403021827E1
2.189812833E0,-2.058408424E1,2.612107937E0,4.810843821E-1,2.075473618E1
2.199759834E0,-2.752193425E1,5.498813986E0,1.667378567E0,2.811536895E1
2.209705833E0,-3.315269066E1,9.727305753E0,2.193633238E0,3.461984116E1
2.219652833E0,-3.553629174E1,1.397415544E1,4.896971188E0,3.849786199E1
2.229598833E0,-3.808687060E1,1.492748197E1,1.651127751E1,4.411418950E1
2.239545833E0,-4.357896614E1,7.835958946E0,3.613090680E1,5.714867425E1
2.249492833E0,-4.808462937E1,-5.456284263E0,5.094468498E1,7.026566407E1
2.259438833E0,-4.912546183E1,-1.659906995E1,5.634974822E1,7.657763542E1
2.269385834E0,-4.368959078E1,-2.151548488E1,5.413736764E1,7.281861717E1
2.279331833E0,-2.998089425E1,-2.089811246E1,4.833226130E1,6.059366804E1
2.289278833E0,-1.046409293E1,-1.651633301E1,4.214483593E1,4.645937680E1
2.299225833E0,9.856812809E0,-1.146147940E1,3.524557286E1,3.835065417E1
2.309171833E0,2.588331287E1,-6.104897184E0,2.665525761E1,3.765260168E1
2.319118833E0,3.553730682E1,-8.758170104E-1,2.000512101E1,4.079058835E1
2.329064833E0,4.028763861E1,2.774412026E0,1.685936928E1,4.376105025E1
2.339011834E0,4.246660119E1,5.135689030E0,1.341078440E1,4.482897117E1
2.348958833E0,4.197601979E1,5.527946568E0,8.808306470E0,4.324500773E1
2.358904833E0,3.904316401E1,4.345920230E0,4.277053478E0,3.951643791E1
2.368851834E0,3.695432808E1,3.175336892E0,1.813380618E0,3.713480143E1
2.378797833E0,3.449143173E1,1.525709302E0,8.126425231E-1,3.453472223E1
2.388744833E0,3.049736010E1,5.460246921E-2,-1.197424396E0,3.052090726E1
2.398691833E0,2.622508029E1,-1.459321185E0,-3.588138038E0,2.650960560E1
2.408637833E0,2.173806265E1,-3.022365544E0,-3.355982527E0,2.220226745E1
2.418584833E0,1.753071617E1,-4.445608824E0,-1.149091312E0,1.812208206E1
2.428530833E0,1.398764964E1,-5.445658702E0,5.751385635E-1,1.502132902E1
2.438477834E0,1.125983583E1,-5.677252881E0,1.009626448E0,1.265047228E1
2.448424833E0,1.021046761E1,-4.833555211E0,2.661897783E-1,1.129990097E1
2.458370833E0,9.503998248E0,-3.805074416E0,-5.598609585E-1,1.025270785E1
2.468317833E0,8.470816877E0,-3.258442199E0,-1.915431086E-1,9.077933294E0
2.478263833E0,6.842183130E0,-3.231609911E0,1.763826635E0,7.769804180E0
2.488210833E0,5.369336166E0,-3.324942582E0,3.717601824E0,7.328408924E0
2.498157833E0,4.264681647E0,-3.317225427E0,4.206913787E0,6.847599411E0
2.508103834E0,3.587943033E0,-2.859475565E0,3.661111874E0,5.869725366E0
2.518050833E0,3.580491342E0,-2.373397112E0,2.921178308E0,5.194825773E0
2.527996833E0,3.748748773E0,-2.044418142E0,1.773355258E0,4.623586462E0
2.537943834E0,4.100734783E0,-1.316069080E0,9.027615649E-1,4.400345671E0
2.547889833E0,4.777630394E0,-2.761996633E-1,8.957139158E-1,4.868710492E0
2.557836833E0,5.410673057E0,5.177417099E-1,8.678191888E-1,5.504230151E0
2.567783833E0,5.419952588E0,8.934539670E-1,4.359268838E-1,5.510370069E0
2.577729834E0,5.283677380E0,1.015607564E0,-6.681011063E-1,5.421721541E0
2.587676833E0,5.456923363E0,1.130610017E0,-1.624911994E0,5.804879895E0
2.597622833E0,5.546765247E0,1.066665452E0,-2.388295233E0,6.132563413E0
2.607569834E0,5.315674514E0,1.177539770E0,-3.048093878E0,6.239701254E0
2.617516833E0,4.717723623E0,1.196827980E0,-2.426620224E0,5.438547518E0
2.627462833E0,3.557371159E0,5.567274356E-1,-7.031399614E-1,3.668683797E0
2.637409833E0,2.163921635E0,3.890971184E-2,5.792807676E-1,2.240454645E0
2.647355833E0,1.098123326E0,-4.263193238E-1,4.817883503E-1,1.272691250E0
2.657302833E0,7.036774667E-1,-7.728492969E-1,-7.530237275E-1,1.288216887E0
2.667249833E0,9.211184599E-1,-4.860199803E-1,-1.817382452E0,2.094648805E0
2.677195834E0,1.036796997E0,-2.417274034E-1,-1.728514130E0,2.030059420E0
2.687142833E0,8.081672835E-1,-3.726260966E-1,-7.120522875E-1,1.139738139E0
2.697088833E0,5.502129065E-1,-6.122525954E-1,4.544198728E-1,9.402578922E-1
2.707035834E0,5.424551862E-1,-4.677784216E-1,9.132567322E-1,1.160651601E0
2.716982833E0,4.463465125E-1,-2.071183187E-1,9.445861137E-1,1.065066258E0
2.726928833E0,4.466363516E-1,-1.009977865E-1,8.713742959E-1,9.843666731E-1
2.736875833E0,6.515761440E-1,1.751182616E-1,6.694617534E-1,9.504719439E-1
2.746821834E0,7.901287694E-1,3.996899343E-1,3.461230069E-1,9.507137590E-1
2.756768833E0,7.731388072E-1,4.787121302E-1,-1.235540787E-1,9.177006751E-1
2.766715833E0,7.725378596E-1,6.212871283E-1,-3.256589581E-1,1.043487517E0
2.776661834E0,7.837648060E-1,6.894007587E-1,-6.171560705E-2,1.045643100E0
2.786608833E0,7.034144881E-1,6.837757373E-1,3.128207384E-1,1.029659174E0
2.796554833E0,5.128477366E-1,5.962569523E-1,4.228501707E-1,8.929375236E-1
2.806501833E0,4.059878971E-1,5.781335074E-1,1.457570529E-1,7.213249222E-1
2.816447833E0,5.377858190E-1,3.906887305E-1,-7.328145808E-1,9.893778252E-1
2.826394833E0,4.111563607E-1,2.798290300E-1,-1.604308745E0,1.679631027E0
2.836341833E0,7.868492123E-2,7.120096028E-2,-1.537005538E0,1.540664441E0
2.846287834E0,-3.025436721E-1,-3.257156396E-1,-7.918200034E-1,9.080761362E-1
2.856234833E0,-3.092653389E-1,-3.402360302E-1,-1.713801732E-1,4.906900955E-1
2.866180833E0,-6.442027319E-2,7.904909313E-2,3.425614679E-1,3.574172492E-1
2.876127834E0,6.909899589E-2,3.173207921E-1,4.707569567E-1,5.719084443E-1
2.886074833E0,-5.340682324E-2,4.585994625E-1,3.206244689E-1,5.621083578E-1
2.896020833E0,-3.111060424E-1,4.230904913E-1,3.319200836E-1,6.212595877E-1
2.905967833E0,-4.784551816E-1,1.219319880E-1,4.879337374E-1,6.941657602E-1
2.915913834E0,-4.746452821E-1,-3.746486485E-2,3.487700049E-1,5.901968114E-1
2.925860833E0,-1.219099148E-1,1.555680960E-1,2.895488566E-1,3.505738156E-1
2.935807833E0,3.423622240E-1,3.577461022E-1,2.732754707E-1,5.655737343E-1
2.945753834E0,5.960935592E-1,6.185488772E-1,7.321353536E-2,8.621429502E-1
2.955700833E0,6.379209220E-1,6.398613936E-1,1.830447106E-1,9.218845219E-1
2.965646833E0,3.737386756E-1,4.121006495E-1,1.466241584E-1,5.753313713E-1
2.975593833E0,1.451790922E-1,3.338000000E-1,8.302399378E-2,3.733529059E-1
2.985540833E0,2.167539819E-1,3.371288198E-1,1.678291225E-1,4.345166788E-1
2.995486833E0,2.229747981E-1,2.416198146E-1,3.023536742E-1,4.466717359E-1
3.005433833E0,2.028132696E-1,1.806234151E-1,2.035404074E-1,3.393917174E-1
3.015379834E0,3.857322285E-1,2.395136476E-1,-1.173156112E-1,4.689553199E-1
3.025326833E0,2.093411377E-1,1.336597484E-1,-3.834428243E-1,4.568556006E-1
3.035273833E0,-2.114148162E-1,-5.974392593E-2,-4.624036976E-1,5.119401730E-1
3.045219833E0,-3.500442959E-1,-1.217173952E-1,1.795975942E-2,3.710373113E-1
3.055166833E0,-2.284290078E-1,4.576323330E-2,4.831659544E-1,5.363985687E-1
3.065112833E0,-1.012578780E-1,2.815469420E-1,5.545341450E-1,6.301031315E-1
3.075059833E0,-1.015198332E-1,1.698066509E-1,3.971838176E-1,4.437291519E-1
3.085006834E0,-3.076589260E-1,-6.818847477E-2,2.299241956E-1,3.900882190E-1
3.094952833E0,-4.336307919E-1,-2.781871319E-1,-9.256962815E-2,5.234432921E-1
3.104899833E0,-4.391384670E-1,-2.692356294E-1,-4.477873760E-1,6.825276196E-1
3.114845834E0,-5.256210158E-1,-2.699004579E-1,-5.017740969E-1,7.751780142E-1
3.124792458E0,-4.438249373E-1,-2.186917126E-1,-3.219874549E-1,5.903241154E-1
3.134739458E0,-1.288374401E-1,-5.057081401E-2,-3.000500539E-2,1.416220094E-1
3.144685458E0,3.081200521E-1,1.634027803E-1,1.644996997E-1,3.856145566E-1
3.154632458E0,4.477477612E-1,1.677624643E-1,-1.076373182E-1,4.901102879E-1
3.164578459E0,4.632983581E-1,6.959239125E-2,-6.286815172E-1,7.840465035E-1
3.174525458E0,2.883939219E-1,-2.397066057E-2,-9.281121683E-1,9.721820013E-1
3.184471458E0,6.609436758E-3,-1.983311230E-1,-7.726382124E-1,7.977146898E-1
3.194418459E0,-3.426009731E-1,-4.781876349E-1,-5.328041375E-1,7.936744231E-1
3.204365458E0,-6.342688973E-1,-6.756767589E-1,-4.047056758E-1,1.011248140E0
3.214311458E0,-5.291080028E-1,-6.660832322E-1,-3.760250831E-1,9.300629086E-1
3.224258458E0,-2.545850286E-1,-4.184080410E-1,-7.655864704E-1,9.088462297E-1
3.234204459E0,-2.588118346E-1,-2.859101343E-1,-8.883844310E-1,9.684808041E-1
3.244151458E0,-5.173254613E-1,-4.249960989E-1,-5.840520591E-1,8.884616619E-1
3.254098458E0,-8.458270799E-1,-5.083616066E-1,-1.771016371E-1,1.002606584E0
3.264044459E0,-1.040500623E0,-5.517608106E-1,3.033640730E-1,1.216187198E0
3.273991458E0,-8.566813394E-1,-4.192424387E-1,4.812854898E-1,1.068317772E0
3.283937458E0,-5.681535528E-1,-2.148372281E-1,2.812955300E-1,6.693882799E-1
3.293884458E0,-1.905708811E-1,7.730369925E-2,3.268065473E-2,2.082333975E-1
3.303831458E0,5.815607797E-2,2.546322083E-1,-1.624105078E-1,3.075660319E-1
3.313777458E0,4.841074292E-2,2.064043736E-1,-2.382407087E-1,3.189122148E-1
3.323724458E0,3.098563828E-2,2.279384995E-1,-2.311527322E-1,3.261098816E-1
3.333670459E0,8.267232031E-3,1.788558018E-1,-1.615176380E-2,1.797738147E-1
3.343617458E0,-2.235059445E-1,3.663280606E-3,3.739282715E-1,4.356497207E-1
3.353564458E0,-4.014707769E-1,-1.283738655E-1,5.355219233E-1,6.815000839E-1
3.363510458E0,-2.816283279E-1,-1.231160492E-1,4.908106041E-1,5.791089066E-1
3.373457458E0,-1.181674044E-1,-1.446823347E-1,3.415323579E-1,3.892825002E-1
3.383403458E0,9.095976178E-2,-1.071970046E-1,-2.184210048E-1,2.597549064E-1
3.393350458E0,2.888753305E-1,-1.932738662E-2,-7.314235282E-1,7.866402494E-1
3.403297459E0,4.686805374E-1,-5.228404820E-2,-6.924810719E-1,8.378097056E-1
3.413243458E0,5.567342330E-1,-1.715128684E-1,-4.347398990E-1,7.268895721E-1
3.423190458E0,3.908707616E-1,-2.925180727E-1,-4.960760218E-1,6.960159442E-1
3.433136459E0,6.780299708E-2,-4.099488741E-1,-7.550977349E-1,8.618746516E-1
3.443083458E0,-5.053832542E-2,-4.356976730E-1,-8.726735473E-1,9.767014409E-1
3.453029458E0,3.276406892E-2,-3.824459106E-1,-9.826684445E-1,1.054976602E0
3.462976458E0,6.182772741E-2,-3.983439052E-1,-9.256616002E-1,1.009628611E0
3.472923458E0,-1.166479323E-1,-5.339431751E-1,-7.246512830E-1,9.076461515E-1
3.482869458E0,-3.367914720E-1,-7.204506433E-1,-4.151043642E-1,8.971004727E-1
3.492816458E0,-1.957844413E-1,-6.723116863E-1,2.239306351E-2,7.005968886E-1
3.502762459E0,8.565951660E-2,-5.177025336E-1,-1.972560028E-2,5.251119551E-1
3.512709458E0,2.836149194E-1,-3.903741503E-1,-6.277225739E-1,7.917480846E-1
3.522656458E0,2.468411224E-1,-2.867913097E-1,-8.665328014E-1,9.455468740E-1
3.532602458E0,2.294939319E-1,-3.583700001E-1,-5.242999470E-1,6.752680625E-1
3.542549458E0,2.608949783E-1,-2.608811277E-1,1.327920216E-1,3.921209935E-1
3.552495458E0,1.769734735E-1,-1.528508949E-1,5.895332390E-1,6.342179801E-1
3.562442458E0,1.988841234E-1,-9.642234027E-2,5.841181691E-1,6.245367866E-1
3.572389459E0,2.187006296E-1,-3.661409497E-2,4.042507259E-1,4.610739710E-1
3.582335458E0,9.961130206E-2,-1.381398851E-1,2.480634463E-1,3.008995060E-1
3.592282458E0,-7.267610315E-2,-4.411250585E-1,2.103202540E-1,4.940726085E-1
3.602228459E0,-2.319538555E-1,-6.756872839E-1,1.596962303E-1,7.320237583E-1
3.612175458E0,-8.852118049E-2,-6.820104629E-1,-8.637919921E-2,6.931346456E-1
3.622122458E0,6.354889188E-2,-7.016395658E-1,-7.812798125E-1,1.052014585E0
3.632068458E0,1.877140046E-1,-6.013808674E-1,-1.616002007E0,1.734461871E0
3.642015458E0,6.887051594E-2,-4.837828356E-1,-2.055388103E0,2.112678214E0
3.651961458E0,-2.996515662E-1,-6.972161472E-1,-1.649456851E0,1.815656719E0
3.661908458E0,-9.063305591E-1,-1.102572033E0,-9.813464621E-1,1.732091525E0
3.671854459E0,-1.567718916E0,-1.390483085E0,-7.284437871E-1,2.218516657E0
3.681801458E0,-2.074904647E0,-1.289408700E0,-1.012336632E0,2.644358059E0
3.691748458E0,-2.290432578E0,-8.664351529E-1,-1.124411457E0,2.694641422E0
3.701694458E0,-2.703650776E0,-3.921195441E-1,-9.765850013E-1,2.901241721E0
3.711641458E0,-3.615670530E0,2.013553029E-1,-8.924090695E-1,3.729612753E0
3.721587458E0,-4.877395880E0,7.576091141E-1,-5.833655959E-1,4.970239185E0
3.731534458E0,-6.064928541E0,1.254010826E0,1.131582409E-1,6.194247827E0
3.741481459E0,-7.596287423E0,1.985125036E0,5.482244146E-1,7.870505323E0
3.751427458E0,-9.261283250E0,3.243513088E0,9.365128630E-1,9.857423645E0
3.761374458E0,-1.081610935E1,4.840702263E0,1.009677318E0,1.189285786E1
3.771320459E0,-1.350350019E1,6.220497807E0,1.054355308E0,1.490472326E1
3.781267458E0,-1.777809082E1,6.571445936E0,2.811009749E0,1.916105922E1
3.791214458E0,-2.194295845E1,6.478151856E0,5.407482231E0,2.350958828E1
3.801160458E0,-2.563549852E1,6.068695318E0,8.313691667E0,2.762472292E1
3.811107458E0,-2.914464652E1,5.225832045E0,1.223637932E1,3.203823841E1
3.821053458E0,-3.128175472E1,3.976553371E0,1.773147564E1,3.617687637E1
3.831000458E0,-3.254624785E1,2.052228268E0,2.496285120E1,4.106840428E1
3.840947459E0,-3.159314936E1,-7.108992165E-1,3.011324949E1,4.365134888E1
3.850893458E0,-2.843598036E1,-3.225214226E0,3.158953812E1,4.262517923E1
3.860840458E0,-2.222961235E1,-4.359240772E0,3.180474139E1,3.904740990E1
3.870786458E0,-1.330461533E1,-4.657576239E0,3.124627148E1,3.427878771E1
3.880733458E0,-2.995532672E0,-4.265602875E0,2.800805773E1,2.848894314E1
3.890679458E0,6.823402458E0,-3.089867556E0,2.235557307E1,2.357705982E1
3.900626458E0,1.447052207E1,-1.475795715E0,1.566292721E1,2.137524902E1
3.910573459E0,1.957057699E1,1.868278956E-1,1.025224714E1,2.209413859E1
3.920519458E0,2.278213680E1,1.154586525E0,6.896980312E0,2.383122248E1
3.930466458E0,2.373392084E1,1.035844778E0,5.209200225E0,2.432093213E1
3.940412458E0,2.287087181E1,1.205195346E0,5.749819751E0,2.361333734E1
3.950359458E0,2.048032189E1,-1.084775448E-2,9.956492633E0,2.277225171E1
3.960306458E0,1.883399856E1,-2.759388190E0,1.304548077E1,2.307635789E1
3.970252458E0,1.770771724E1,-4.337528890E0,1.138049313E1,2.149169678E1
3.980199459E0,1.657894851E1,-4.773346431E0,7.749479796E0,1.891297985E1
3.990145458E0,1.642023753E1,-4.824438232E0,4.087117202E0,1.759556569E1
4.000092458E0,1.603980833E1,-4.431370854E0,1.909013000E0,1.674983073E1
4.010039459E0,1.504769838E1,-3.996036294E0,3.172044325E-1,1.557248058E1
4.019985458E0,1.375032051E1,-3.986829852E0,-6.011674440E-1,1.432925430E1
4.029932458E0,1.335488618E1,-3.479419588E0,-8.984433961E-1,1.382991490E1
4.039878458E0,1.315987336E1,-2.577929792E0,-1.379507861E0,1.348076521E1
4.049825458E0,1.250423676E1,-1.743332729E0,-1.754389229E0,1.274649079E1
4.059772458E0,1.153082738E1,-1.277040669E0,-1.721798603E0,1.172840157E1
4.069718458E0,1.003605687E1,-1.328278066E0,-1.565121875E0,1.024384530E1
4.079665459E0,9.064809203E0,-1.269710600E0,-1.084747381E0,9.217353621E0
4.089611458E0,8.340634468E0,-1.120880250E0,-3.713034930E-1,8.423800932E0
4.099558458E0,6.542031518E0,-1.097595468E0,-1.626660311E-1,6.635461734E0
4.109504458E0,4.909896458E0,-1.117316372E0,2.592244288E-2,5.035489160E0
4.119451458E0,4.632040279E0,-8.359267205E-1,9.745647883E-1,4.806698155E0
4.129398833E0,4.983461448E0,-3.020876259E-1,1.202813775E0,5.135455765E0
4.139344833E0,5.004134279E0,2.477038425E-1,4.147751659E-1,5.027400473E0
4.149291833E0,4.887365967E0,2.390417773E-1,2.416051235E-3,4.893208856E0
4.159237833E0,5.142852454E0,5.381777287E-3,-5.369258398E-1,5.170807450E0
4.169184834E0,5.046441808E0,2.309217489E-1,-1.174323217E0,5.186418301E0
4.179131833E0,4.562750481E0,2.509876388E-1,-1.196894639E0,4.723795457E0
4.189077833E0,3.920413669E0,-1.965108848E-1,-2.846792589E-1,3.935645073E0
4.199024834E0,3.185076307E0,-4.279752553E-1,8.958378768E-1,3.336225322E0
4.208970833E0,2.647117849E0,-5.436904836E-1,1.469174913E0,3.075923792E0
4.218917833E0,2.428795680E0,-4.134694827E-1,1.079438109E0,2.689831240E0
4.228864833E0,2.256778197E0,1.000405973E-1,8.323312676E-1,2.407453279E0
4.238810834E0,2.136814382E0,2.152190512E-1,1.235807274E0,2.477804383E0
4.248757833E0,2.115513414E0,4.309567505E-1,1.139722903E0,2.441329355E0
4.258703833E0,2.155889315E0,1.160533728E0,6.812725443E-1,2.541422742E0
4.268650834E0,2.297918768E0,1.563927289E0,4.960871680E-1,2.823544175E0
4.278596833E0,2.783138995E0,1.917205533E0,3.726933396E-1,3.400064712E0
4.288543833E0,3.298071410E0,2.400662679E0,-6.441588778E-2,4.079780108E0
4.298490833E0,2.789447848E0,2.759247272E0,4.840973793E-1,3.953329619E0
4.308436833E0,3.050427794E0,2.717121007E0,6.137605923E-1,4.130927058E0
4.318383833E0,3.317046502E0,2.597757701E0,1.439471204E-2,4.213235073E0
4.328329833E0,2.734861167E0,2.350100636E0,-2.632176385E-1,3.615483664E0
4.338276834E0,1.911200735E0,1.810983260E0,-3.186878711E-1,2.652152065E0
4.348223833E0,1.289045149E0,1.274277860E0,-4.599829137E-1,1.870028273E0
4.358169833E0,6.762051279E-1,7.254207766E-1,-2.745121568E-1,1.029002236E0
4.368116834E0,2.580266449E-1,3.758490819E-1,-3.069261968E-2,4.569270388E-1
4.378062833E0,1.487808857E-1,2.223006141E-1,3.791449746E-2,2.701681404E-1
4.388009833E0,3.014974956E-1,2.227654678E-1,3.389332706E-1,5.053720960E-1
4.397956833E0,1.612870384E-2,9.704156041E-2,6.054978919E-1,6.134369541E-1
4.407902834E0,-2.711206804E-1,-1.242685354E-1,5.130715388E-1,5.934572404E-1
4.417849833E0,2.373765359E-2,-3.778786504E-1,-2.507426222E-1,4.541229054E-1
4.427795833E0,2.502178529E-1,-4.007634830E-1,-9.524436021E-1,1.063188205E0
4.437742834E0,-1.136498273E-1,-4.901223868E-1,-1.307774220E0,1.401217202E0
4.447689833E0,-5.199336484E-1,-7.118780404E-1,-1.506024066E0,1.745052959E0
4.457635833E0,-6.227546333E-1,-7.248062342E-1,-1.200830984E0,1.534653858E0
4.467582833E0,-5.390630336E-1,-5.558790046E-1,-4.579170924E-1,8.995990693E-1
4.477528833E0,-1.965589598E-1,-4.069779038E-1,2.173959696E-1,5.015251205E-1
4.487475833E0,3.393115123E-1,-9.185624957E-2,1.836727381E-2,3.520045877E-1
4.497422833E0,3.542758528E-1,1.692716306E-1,-6.865619355E-1,7.909055292E-1
4.507368834E0,-2.883966445E-1,-1.184710211E-1,-1.407880306E0,1.441989931E0
4.517315833E0,-7.732695656E-1,-3.802736700E-1,-2.001856844E0,2.179445964E0
4.527261833E0,-8.552651437E-1,-4.082327163E-1,-1.886095423E0,2.110802776E0
4.537208833E0,-9.944739729E-1,-4.411560488E-1,-1.021509744E0,1.492340209E0
4.547154833E0,-1.287712423E0,-4.021305621E-1,4.693501532E-2,1.349857462E0
4.557101833E0,-1.020768829E0,-2.104161483E-1,2.887454492E-1,1.081488738E0
4.567048833E0,-6.557530294E-1,8.386252105E-2,-1.396432042E-2,6.612412269E-1
4.576994834E0,-7.333257736E-1,1.882107621E-1,-6.015205701E-2,7.594789340E-1
4.586941833E0,-1.131620051E0,3.665619493E-3,-5.283134758E-2,1.132858564E0
4.596887833E0,-1.268403016E0,-2.926706851E-2,3.770787513E-1,1.323590253E0
4.606834834E0,-1.150990414E0,4.105563998E-2,8.067087686E-1,1.406144920E0
4.616780833E0,-9.912216054E-1,1.247047377E-1,8.900988346E-1,1.338038668E0
4.626727833E0,-7.739778826E-1,1.970073134E-1,4.232226384E-1,9.038645064E-1
4.636674833E0,-5.642549217E-1,2.272578835E-1,-1.574152315E-1,6.283385373E-1
4.646620833E0,-5.738058734E-1,1.552757353E-1,1.520697069E-1,6.135869377E-1
4.656567833E0,-5.196938394E-1,-5.057841539E-4,6.160684884E-1,8.059915167E-1
4.666513833E0,-4.246743924E-1,-2.361631930E-2,8.117186630E-1,9.164023450E-1
4.676460834E0,-1.066404319E-1,2.249248445E-2,8.979253328E-1,9.045153381E-1
4.686407833E0,1.125252341E-1,8.285796940E-2,6.044968486E-1,6.204384025E-1
4.696353833E0,-1.269302976E-1,-6.010002136E-2,-2.036116265E0,2.040953884E0
4.706300833E0,-6.282554745E-1,2.610898733E-2,-1.305063450E0,1.448646689E0
4.716246833E0,2.392809284E-1,-1.453565186E-1,2.031100523E-1,3.458866484E-1
4.726193833E0,3.327148298E-1,-3.531501907E-1,-4.103809834E-2,4.869274491E-1
4.736140833E0,1.959695057E-1,-1.467645282E-1,-2.820579886E-1,3.734977682E-1
4.746086834E0,4.455428492E-1,-1.405004060E-1,-1.002633762E-1,4.778091033E-1
4.756033833E0,3.577998966E-1,-6.219800234E-2,3.530595589E-1,5.064981832E-1
4.765979833E0,-1.055985677E-1,-4.288576001E-1,-2.130959272E-2,4.421809555E-1
4.775926834E0,-2.253597860E-1,-3.516661674E-1,-4.481224215E-1,6.125927122E-1