"Time (s)","Linear Acceleration x (m/s^2)","Linear Acceleration y (m/s^2)","Linear Acceleration z (m/s^2)","Absolute acceleration (m/s^2)"
1.122249989E-3,-4.200820258E-1,-2.889886934E-1,-3.655420487E-1,6.273789625E-1
1.106925006E-2,-1.008427622E-1,-2.292243022E-1,-1.641944202E-1,2.994542553E-1
2.101525012E-2,-5.188139431E-2,-3.798976940E-1,5.497559465E-2,3.873451342E-1
3.096225020E-2,-1.790456901E-1,-4.227460903E-1,2.784164158E-1,5.369239393E-1
4.090825003E-2,-8.575694583E-2,-4.221742326E-1,4.507910176E-1,6.235365892E-1
5.085525010E-2,-1.078450953E-1,-4.527668649E-1,3.916886774E-1,6.083160515E-1
6.080125016E-2,-3.757140112E-1,-5.360212755E-1,1.822331536E-1,6.794768195E-1
7.074825000E-2,-5.103810887E-1,-5.884474111E-1,-6.200862564E-2,7.814117231E-1
8.069525007E-2,-4.447375780E-1,-5.585546905E-1,-2.673709524E-1,7.624054576E-1
9.064125014E-2,-4.455676633E-1,-5.125289172E-1,-4.881021738E-1,8.363373516E-1
1.005882502E-1,-3.669378156E-1,-4.177221626E-1,-5.727757768E-1,7.982526267E-1
1.105342500E-1,-2.230295061E-1,-2.733871526E-1,-5.437700788E-1,6.482041302E-1
1.204812501E-1,-1.524154235E-1,-2.387862539E-1,-3.675992453E-1,4.640889371E-1
1.304272502E-1,-1.791252488E-1,-2.392160243E-1,-9.645325743E-2,3.140276929E-1
1.403742500E-1,-2.380915682E-1,-2.462215734E-1,3.543646574E-2,3.443376266E-1
1.503202501E-1,-3.712022265E-1,-2.628124630E-1,-6.976663828E-2,4.601400521E-1
1.602672501E-1,-3.528595841E-1,-1.649686646E-1,-3.043218470E-1,4.943038872E-1
1.702132502E-1,6.787703745E-3,2.304153800E-2,-2.419695512E-1,2.431588968E-1
1.801602500E-1,3.455438037E-1,1.034331518E-1,-1.257494889E-2,3.609114386E-1
1.901062501E-1,2.852205466E-1,9.805254400E-2,1.016456580E-1,3.182717414E-1
2.000532502E-1,-2.184612410E-1,1.738260269E-2,9.314614534E-3,2.193495628E-1
2.100002500E-1,-7.314034284E-1,-4.231629968E-3,-2.496609056E-1,7.728515055E-1
2.199462501E-1,-8.824552812E-1,4.877630353E-2,-5.012630868E-1,1.016056659E0
2.298932502E-1,-8.803659980E-1,1.546278638E-1,-6.194949567E-1,1.087533019E0
2.398392500E-1,-9.765841243E-1,2.314696330E-1,-4.231851431E-1,1.089210911E0
2.497862501E-1,-1.204641907E0,2.587521565E-1,-1.008691478E-1,1.236240020E0
2.597322501E-1,-1.548303382E0,3.907167971E-1,3.987403830E-1,1.645872678E0
2.696792502E-1,-1.746217453E0,6.494192523E-1,1.089207564E0,2.158099598E0
2.796252500E-1,-2.055056858E0,9.231660086E-1,1.414128056E0,2.659934647E0
2.895722501E-1,-2.757560935E0,1.207616093E0,1.508800324E0,3.367336835E0
2.995182502E-1,-4.250279370E0,1.272856402E0,1.423441501E0,4.659530432E0
3.094652500E-1,-7.307142609E0,1.104746613E0,1.379883252E0,7.517903696E0
3.194112501E-1,-1.175146972E1,8.312325758E-1,1.895356243E0,1.193232432E1
3.293582501E-1,-1.673151406E1,4.805610198E-1,2.677706680E0,1.695124228E1
3.393042502E-1,-2.215775474E1,1.093408277E0,3.843455540E0,2.251519015E1
3.492512500E-1,-2.797878890E1,2.067499441E0,5.297190295E0,2.855078646E1
3.591982501E-1,-3.426465566E1,2.588855900E0,7.481328825E0,3.516730133E1
3.691442502E-1,-3.961873585E1,2.688044558E0,1.197608350E1,4.147645585E1
3.790912500E-1,-4.077973560E1,2.261214772E0,1.968658575E1,4.533940435E1
3.890372501E-1,-3.825718128E1,4.885810608E-1,2.838069844E1,4.763732439E1
3.989842501E-1,-3.581106878E1,-3.159832415E0,3.353264975E1,4.916152751E1
4.089302502E-1,-3.165217818E1,-6.697702525E0,3.261594199E1,4.594038827E1
4.188772500E-1,-2.347635801E1,-7.699507737E0,2.833432300E1,3.759329281E1
4.288232501E-1,-1.300580741E1,-7.155563484E0,2.456429563E1,2.870118003E1
4.387702502E-1,-6.706431833E-1,-6.233895532E0,2.188426877E1,2.276471910E1
4.487162500E-1,1.205294398E1,-4.605353002E0,1.968318969E1,2.353530733E1
4.586632501E-1,2.437295602E1,-1.898817794E0,1.630789030E1,2.938696616E1
4.686102502E-1,3.496274304E1,1.651331468E0,1.105457634E1,3.670591171E1
4.785562500E-1,4.274377792E1,4.590907456E0,5.596475351E0,4.335236462E1
4.885032501E-1,4.575802227E1,6.348924297E0,3.461725621E-1,4.619767610E1
4.984492501E-1,4.254457965E1,6.301854796E0,-3.983004019E0,4.319281136E1
5.083962502E-1,3.538067863E1,3.710253628E0,-5.513819110E0,3.599945282E1
5.183422500E-1,2.742407525E1,-4.253662276E-1,-3.090130681E0,2.760090120E1
5.282892501E-1,2.015900803E1,-4.456492832E0,1.639670366E0,2.071073278E1
5.382352502E-1,1.468756603E1,-7.494163463E0,4.502082403E0,1.709256645E1
5.481822500E-1,1.166627696E1,-8.912526657E0,4.166622963E0,1.526092712E1
5.581282501E-1,9.830664060E0,-8.308601081E0,1.829807786E0,1.300088475E1
5.680752501E-1,8.633539041E0,-6.690684696E0,-7.052524142E-1,1.094534783E1
5.780212502E-1,8.023238246E0,-5.065055249E0,-2.477372886E0,9.806350649E0
5.879682500E-1,7.179731780E0,-3.453011808E0,-3.526503707E0,8.712523594E0
5.979142501E-1,5.639471097E0,-2.170592870E0,-3.632627163E0,7.050609035E0
6.078612502E-1,3.727602902E0,-1.652119088E0,-2.682638222E0,4.880683221E0
6.178082500E-1,2.327846279E0,-1.727741713E0,-9.664686605E-1,3.055817632E0
6.277542501E-1,1.689093518E0,-1.522587474E0,7.029897610E-1,2.380231949E0
6.377012501E-1,1.462369339E0,-1.115319548E0,1.970339767E0,2.695310849E0
6.476472502E-1,1.624108148E0,-8.091289312E-1,2.473187449E0,3.067421240E0
6.575942500E-1,1.995556615E0,-3.294701368E-1,2.024288517E0,2.861562646E0
6.675402501E-1,2.466875964E0,3.528642619E-1,8.815566373E-1,2.643318429E0
6.774872502E-1,2.798385610E0,1.265709350E0,-1.595483688E-1,3.075457342E0
6.874332500E-1,2.901983069E0,1.944146580E0,-6.793330228E-1,3.558469476E0
6.973802501E-1,2.615238537E0,2.286423873E0,-6.122923565E-1,3.527337333E0
7.073262502E-1,1.637837264E0,1.879769905E0,1.342860583E-1,2.496813678E0
7.172732500E-1,4.151710955E-1,9.707097191E-1,1.245628842E0,1.632861173E0
7.272202501E-1,-3.454132280E-1,4.095331371E-1,1.845718060E0,1.921900841E0
7.371662501E-1,-8.026168140E-1,-5.439781666E-2,1.678140367E0,1.860996498E0
7.471132502E-1,-8.970900580E-1,-3.940017629E-1,9.124099823E-1,1.338842760E0
7.570592500E-1,-8.004119021E-1,-3.423842973E-1,4.143804789E-1,9.641563158E-1
7.670062501E-1,-5.888415865E-1,7.545714855E-2,2.505988355E-1,6.443818523E-1
7.769522502E-1,-5.574557063E-1,5.892104727E-1,-2.282273154E-1,8.426230196E-1
7.868992500E-1,-4.712017471E-1,1.144448038E0,-6.552997971E-1,1.400432155E0
7.968452501E-1,-4.386407228E-1,1.538480791E0,-5.112958125E-1,1.679509522E0
8.067922501E-1,-4.128829338E-1,1.581060215E0,9.780060209E-2,1.637006011E0
8.167382502E-1,-5.119051655E-1,1.438733139E0,8.111093831E-1,1.729132261E0
8.266852500E-1,-6.861746306E-1,1.218049865E0,1.341458859E0,1.937522379E0
8.366312501E-1,-5.759987620E-1,1.085236793E0,1.818555404E0,2.194688413E0
8.465782502E-1,-2.595145603E-1,8.577444363E-1,2.208726071E0,2.383598998E0
8.565252500E-1,-2.341588406E-1,5.326123488E-1,2.087295774E0,2.166866384E0
8.664712501E-1,-3.925708761E-1,2.091724455E-1,1.534318743E0,1.597497734E0
8.764182501E-1,-3.806726693E-1,1.790709794E-2,1.114906150E0,1.178239394E0
8.863642502E-1,-6.662902236E-3,-1.176752150E-2,9.760967588E-1,9.761904279E-1
8.963112500E-1,2.998306006E-2,-1.959033591E-1,6.083525026E-1,6.398201914E-1
9.062572501E-1,-1.058168424E-1,-3.578770798E-1,3.482262139E-1,5.104260029E-1
9.162042502E-1,-8.184713200E-3,-4.193962204E-1,4.025374917E-1,5.813747599E-1
9.261503750E-1,3.588923758E-1,-2.716154462E-1,5.508100533E-1,7.113159656E-1
9.360973751E-1,6.061717835E-1,-1.667181516E-1,5.190924168E-1,8.152889735E-1
9.460433752E-1,5.490944803E-1,-4.021861106E-1,3.111759531E-1,7.483908669E-1
9.559903750E-1,4.784664010E-1,-4.882331514E-1,3.204578598E-1,7.549800970E-1
9.659363751E-1,6.231766561E-1,-3.231440341E-1,3.272978961E-1,7.745289693E-1
9.758833752E-1,9.281573381E-1,-1.044441354E-1,4.946487530E-1,1.056911543E0
9.858303750E-1,1.280529849E0,3.769992292E-2,1.072381690E0,1.670682635E0
9.957763751E-1,1.436544526E0,-1.271471196E-1,1.353435127E0,1.977779868E0
1.005723375E0,1.296357531E0,-2.461414665E-1,1.070192565E0,1.698952794E0
1.015669375E0,9.638129282E-1,-2.975174421E-1,4.443661702E-1,1.102231048E0
1.025616375E0,9.698083708E-1,-2.648858857E-1,-5.837154787E-2,1.007025345E0
1.035562375E0,1.245637613E0,-1.335416347E-1,-3.126938903E-1,1.291210246E0
1.045509375E0,1.419425633E0,-6.973272443E-2,-4.651343473E-1,1.495319946E0
1.055455375E0,1.482476744E0,-1.269798893E-1,-3.125640821E-1,1.520380707E0
1.065402375E0,1.427021458E0,-2.258826184E-1,2.224994012E-1,1.461820503E0
1.075348375E0,1.343156599E0,-2.088561112E-1,7.534815645E-1,1.554163760E0
1.085295375E0,1.123753864E0,-2.667745364E-1,6.311893880E-1,1.316203421E0
1.095241375E0,7.571896494E-1,-3.017701221E-1,-1.227026328E-1,8.242920040E-1
1.105188375E0,4.316257451E-1,-2.338564664E-1,-6.171794593E-1,7.886064391E-1
1.115135375E0,7.539490311E-2,-3.324627417E-1,-4.815743423E-1,5.900251801E-1
1.125081375E0,-2.093339018E-1,-5.008683997E-1,1.140008247E-1,5.546945324E-1
1.135028375E0,-1.878016032E-1,-4.817596990E-1,3.914476991E-1,6.485315342E-1
1.144974375E0,-2.193752887E-2,-3.445103449E-1,3.633261001E-1,5.011731117E-1
1.154921375E0,1.958790931E-1,-2.142870051E-1,3.511685693E-1,4.556390059E-1
1.164867375E0,3.604966325E-1,-2.478558701E-1,6.380774081E-1,7.736492313E-1
1.174814375E0,4.513849486E-1,-1.228137481E-1,8.606300372E-1,9.795486968E-1
1.184760375E0,3.206798347E-1,4.025398672E-2,5.409972560E-1,6.301856638E-1
1.194707375E0,1.957973052E-2,-2.042198539E-2,7.119686723E-2,7.661212200E-2
1.204653375E0,-2.345762587E-1,-1.267091632E-1,-1.779793407E-1,3.205586980E-1
1.214600375E0,-2.764359273E-1,-1.227780801E-1,-2.215896292E-1,3.749576545E-1
1.224547375E0,-2.655975284E-1,-1.572257817E-2,1.006594520E-2,2.662528306E-1
1.234493375E0,-1.946814006E-1,-8.987170458E-3,3.955688167E-1,4.409720010E-1
1.244440375E0,-1.966219453E-1,-7.863861859E-2,4.860492164E-1,5.301773877E-1
1.254386375E0,-3.675226468E-1,-5.306289732E-2,5.732159625E-1,6.829825083E-1
1.264333375E0,-6.024465955E-1,-1.367511714E-1,6.653494066E-1,9.079276492E-1
1.274279375E0,-8.288629916E-1,-2.526856703E-1,5.623968593E-1,1.033031526E0
1.284226375E0,-8.314477533E-1,-3.057859898E-2,3.408949749E-1,8.991383659E-1
1.294172375E0,-7.943508245E-1,2.721416956E-1,3.308827875E-1,9.025174535E-1
1.304119375E0,-8.937738097E-1,2.671510971E-1,6.540268582E-1,1.139277167E0
1.314065375E0,-9.816665972E-1,3.104561609E-1,1.015495371E0,1.446126960E0
1.324012375E0,-1.306544696E0,2.769375819E-1,1.072598110E0,1.712956559E0
1.333958375E0,-1.711158717E0,3.454950160E-1,8.604002416E-1,1.946206448E0
1.343905375E0,-2.089985640E0,7.019114614E-1,5.991279352E-1,2.284660578E0
1.353852375E0,-2.858757819E0,1.081059542E0,4.588981821E-1,3.090594368E0
1.363798375E0,-4.610030190E0,1.107943870E0,9.174760100E-1,4.829252551E0
1.373745375E0,-7.632761770E0,1.002736089E0,1.791892101E0,7.904138739E0
1.383691375E0,-1.293020759E1,7.223422176E-1,2.549567873E0,1.319895234E1
1.393638375E0,-2.123277902E1,3.352372456E-1,4.576910391E0,2.172306143E1
1.403584375E0,-3.226718364E1,1.102890122E-1,9.238579681E0,3.356388920E1
1.413531375E0,-4.237265280E1,-5.930614489E-1,1.659046285E1,4.550864626E1
1.423477375E0,-5.055954526E1,-1.985817931E0,2.549346731E1,5.665799119E1
1.433424375E0,-5.567828204E1,-3.426912176E0,3.513907635E1,6.592851815E1
1.443370375E0,-5.443055639E1,-5.783619581E0,4.677174235E1,7.199813613E1
1.453317375E0,-4.824291584E1,-1.106717242E1,5.773461681E1,7.604700660E1
1.463264375E0,-3.912084778E1,-1.671320877E1,6.104541322E1,7.440641473E1
1.473210375E0,-2.626803861E1,-1.958337889E1,5.520420851E1,6.419519622E1
1.483157375E0,-1.081358218E1,-1.971080024E1,4.708368429E1,5.217588075E1
1.493103375E0,8.218587874E0,-1.732891824E1,4.221084865E1,4.636369633E1
1.503050375E0,2.950626874E1,-1.240719052E1,3.810575009E1,4.976551478E1
1.512996375E0,4.752509761E1,-6.381753489E0,3.142122251E1,5.732935465E1
1.522943375E0,5.797915205E1,-5.198788673E-1,2.266038374E1,6.225227174E1
1.532889375E0,6.219052726E1,4.602898341E0,1.268851878E1,6.363840713E1
1.542836375E0,5.979437103E1,7.476162810E0,2.003231524E0,6.029322311E1
1.552782375E0,5.383870590E1,6.409554076E0,-3.434157461E0,5.432754434E1
1.562729375E0,4.802851481E1,1.083488476E0,-3.095180336E0,4.814033988E1
1.572676375E0,4.015303103E1,-4.079160311E0,-3.720011462E0,4.053077763E1
1.582622375E0,3.156422670E1,-6.330015571E0,-5.460228209E0,3.265246692E1
1.592569375E0,2.404443840E1,-7.714367850E0,-6.241853592E0,2.601167479E1
1.602515375E0,1.911400301E1,-8.113164915E0,-6.064953099E0,2.163220312E1
1.612462375E0,1.658983953E1,-7.121517486E0,-5.879935502E0,1.898716484E1
1.622408375E0,1.509844052E1,-5.439084678E0,-6.571475172E0,1.734159261E1
1.632355375E0,1.285358217E1,-4.365440574E0,-6.792485890E0,1.517924604E1
1.642301375E0,9.651429943E0,-4.234988608E0,-5.760985594E0,1.201141888E1
1.652248375E0,6.595089152E0,-4.176412956E0,-3.409353572E0,8.518293132E0
1.662194375E0,4.333888122E0,-3.908026342E0,-6.974091053E-1,5.877213251E0
1.672141375E0,3.095599289E0,-3.698017745E0,1.034733807E0,4.932417688E0
1.682087375E0,3.099336537E0,-2.892640387E0,1.680151809E0,4.560281294E0
1.692034375E0,3.632852281E0,-1.558128605E0,1.829042385E0,4.355545487E0
1.701981375E0,4.174288370E0,-3.204671788E-1,1.535455441E0,4.459260704E0
1.711927375E0,4.010359341E0,4.021691537E-1,6.627368706E-1,4.084598172E0
1.721874375E0,3.298745594E0,8.852754664E-1,1.754217321E-1,3.419971920E0
1.731820375E0,2.412681631E0,7.133679110E-1,5.488898277E-1,2.575112905E0
1.741767375E0,1.978522945E0,1.896953702E-1,1.144232860E0,2.293426741E0
1.751713375E0,2.066539913E0,5.300617933E-2,1.493632647E0,2.550359847E0
1.761660375E0,2.365065269E0,5.239339113E-2,1.328727132E0,2.713262719E0
1.771606375E0,2.969031336E0,2.704886878E-1,8.778360540E-1,3.107878270E0
1.781553375E0,3.433990815E0,6.811637861E-1,2.304352605E-1,3.508472236E0
1.791499375E0,3.121913514E0,8.598944575E-1,-2.741882211E-1,3.249760244E0
1.801446375E0,2.135667304E0,6.656458604E-1,-6.771397322E-1,2.337237143E0
1.811393375E0,1.158807630E0,7.929467618E-2,-8.562066185E-1,1.442987367E0
1.821339375E0,4.978749542E-1,-3.660415471E-1,-7.388582629E-1,9.632120311E-1
1.831286375E0,2.146226718E-1,-5.907740182E-1,-5.952085465E-1,8.656500711E-1
1.841232375E0,2.080550609E-1,-7.016313797E-1,-4.403859339E-1,8.541154911E-1
1.851179375E0,4.703581401E-1,-4.772070569E-1,-4.213579613E-1,7.915212484E-1
1.861125375E0,9.367148113E-1,-7.514841557E-2,-2.840500985E-1,9.817160386E-1
1.871072375E0,1.318898693E0,2.341207606E-1,-1.019093857E-1,1.343388186E0
1.881018375E0,1.402201928E0,4.108709800E-1,-1.683197405E-1,1.470821792E0
1.890965375E0,1.359828472E0,2.698156732E-1,-2.972057855E-1,1.417838231E0
1.900911375E0,1.162118616E0,-1.039868832E-2,-4.220461786E-2,1.162931227E0
1.910858375E0,7.818699427E-1,-2.771165067E-1,5.039744041E-1,9.706206085E-1
1.920804375E0,4.216408204E-1,-4.385996461E-1,8.098762053E-1,1.012941311E0
1.930751000E0,2.020777995E-1,-3.986567312E-1,7.843472618E-1,9.027531520E-1
1.940698000E0,1.683999387E-1,-3.635219818E-1,7.522507256E-1,8.522839461E-1
1.950644000E0,1.877091076E-1,-1.716877002E-1,9.225549746E-1,9.569843554E-1
1.960591000E0,1.974838066E-1,1.834330022E-2,1.014346905E0,1.033555017E0
1.970537000E0,3.504553552E-1,1.365517813E-1,7.960136265E-1,8.803993631E-1
1.980484000E0,4.305325716E-1,1.570591360E-1,3.405570789E-1,5.709684679E-1
1.990430000E0,4.351926928E-1,1.485707331E-1,1.025729899E-1,4.711551346E-1
2.000377000E0,3.748473077E-1,1.134131795E-1,1.173880436E-1,4.088434983E-1
2.010323000E0,3.877694350E-1,1.638068229E-1,2.011535740E-1,4.665410703E-1
2.020270000E0,5.220461378E-1,3.425860262E-1,4.434849948E-1,7.658826907E-1
2.030216000E0,3.833713055E-1,5.600819832E-1,6.200358242E-1,9.192985419E-1
2.040163000E0,2.938503608E-1,6.692717189E-1,5.463194283E-1,9.125445665E-1
2.050110000E0,4.347699026E-1,7.941553813E-1,4.621557391E-1,1.016511468E0
2.060056000E0,5.208751963E-1,9.510461175E-1,3.215974091E-1,1.131028108E0
2.070003000E0,6.169328530E-1,9.006910658E-1,3.976110298E-2,1.092442898E0
2.079949000E0,7.740811591E-1,9.324929023E-1,-2.108160613E-1,1.230117094E0
2.089896000E0,8.016811864E-1,9.657822704E-1,-1.826003587E-1,1.268373371E0
2.099842000E0,7.147009300E-1,6.587560862E-1,8.516586542E-2,9.757101132E-1
2.109789000E0,5.668908466E-1,2.328969383E-1,4.077959293E-1,7.361411113E-1
2.119735000E0,2.529011767E-1,-1.054469329E-1,5.395506549E-1,6.051388023E-1
2.129682000E0,2.134640826E-1,-2.996411508E-1,9.776018322E-2,3.806688682E-1
2.139628000E0,6.587052155E-1,-1.370803696E-1,-6.148265398E-1,9.114248530E-1
2.149575000E0,7.723701176E-1,3.206846952E-2,-1.295794444E0,1.508862892E0
2.159521000E0,5.155074523E-1,-2.045601618E-1,-1.682163836E0,1.771233459E0
2.169468000E0,2.672155626E-1,-5.964557576E-1,-1.633867005E0,1.759740042E0
2.179415000E0,1.364693721E-1,-7.709723407E-1,-1.105015585E0,1.354282719E0
2.189361000E0,8.771042749E-3,-7.871796530E-1,-3.850122535E-1,8.763350802E-1
2.199308000E0,2.209184054E-2,-8.880365217E-1,-8.523665328E-2,8.923912821E-1
2.209254000E0,-1.287848151E-1,-8.588565767E-1,-3.577537401E-1,9.392592222E-1
2.219201000E0,-3.588814853E-1,-6.708779490E-1,-5.365427741E-1,9.309947859E-1
2.229147000E0,-5.290783647E-1,-6.155919403E-1,-5.880170560E-1,1.002318019E0
2.239094000E0,-5.796127433E-1,-5.676699150E-1,-5.013888019E-1,9.537246957E-1
2.249040000E0,-3.656769732E-1,-4.199634004E-1,-1.455605865E-1,5.755664954E-1
2.258987000E0,-3.197034959E-1,-2.650835216E-1,-2.850149987E-1,5.036994622E-1
2.268933000E0,-5.887691176E-1,-2.599607760E-1,-1.030276986E0,1.214783663E0
2.278880000E0,-1.023095655E0,-3.110245103E-1,-1.419514511E0,1.777211977E0
2.288827000E0,-1.460336847E0,-2.619359654E-1,-9.301675377E-1,1.751115588E0
2.298773000E0,-1.613992319E0,-2.625464147E-1,-6.658809185E-3,1.635220525E0
2.308720000E0,-1.962765722E0,-4.007921344E-1,2.199499603E-1,2.015306825E0
2.318666000E0,-2.447756739E0,-5.240286362E-1,4.051820777E-2,2.503549638E0
2.328613000E0,-2.580557239E0,-4.185132909E-1,-9.775550544E-2,2.616101140E0
2.338559000E0,-2.281998408E0,3.604282200E-2,1.640815689E-1,2.288173634E0
2.348506000E0,-2.310333430E0,2.775462770E-1,3.406388303E-1,2.351745587E0
2.358452000E0,-2.715905663E0,3.110999393E-1,4.347883578E-1,2.768025950E0
2.368399000E0,-3.071994080E0,3.389209914E-1,1.028699407E0,3.257335957E0
2.378345000E0,-3.523703768E0,1.356261671E-1,1.842383392E0,3.978600164E0
2.388292000E0,-3.998891197E0,-2.111873960E-1,2.048499498E0,4.498008572E0
2.398239000E0,-4.204421996E0,-2.023200935E-1,1.423628027E0,4.443513756E0
2.408185000E0,-3.985225669E0,8.369529068E-2,8.331848880E-1,4.072250679E0
2.418132000E0,-3.697131892E0,3.425374943E-1,7.891916800E-1,3.795910914E0
2.428078000E0,-3.849983664E0,4.630024159E-1,1.107945040E0,4.032900651E0
2.438025000E0,-4.194315669E0,3.381006271E-1,1.338128724E0,4.415561623E0
2.447971000E0,-4.535703016E0,1.431883711E-1,1.656247222E0,4.830761805E0
2.457918000E0,-4.732315934E0,2.103535831E-2,1.842442596E0,5.078370930E0
2.467864000E0,-4.730570540E0,1.866483861E-1,1.542127115E0,4.979085387E0
2.477811000E0,-4.851571067E0,4.609675848E-1,1.134109430E0,5.003642386E0
2.487757000E0,-5.346016300E0,6.103662837E-1,9.399994846E-1,5.462237299E0
2.497704000E0,-5.939430921E0,6.289452267E-1,1.222604261E0,6.096488575E0
2.507651000E0,-6.628053415E0,4.549642485E-1,1.720577704E0,6.862832665E0
2.517597000E0,-7.362428618E0,2.028603762E-1,2.349342252E0,7.730841901E0
2.527544000E0,-8.120406691E0,6.543619037E-3,3.564915236E0,8.868464822E0
2.537490000E0,-8.840045741E0,-1.032027715E-1,5.069348275E0,1.019094458E1
2.547437000E0,-9.332007077E0,1.696160316E-1,6.451494985E0,1.134622903E1
2.557383000E0,-9.906302472E0,7.743666494E-1,7.264038690E0,1.230856330E1
2.567330000E0,-1.032641556E1,1.430594984E0,6.827331787E0,1.246169811E1
2.577276000E0,-1.071484610E1,2.646619958E0,5.682307799E0,1.241374827E1
2.587223000E0,-1.179196637E1,3.801611695E0,4.964588390E0,1.334727913E1
2.597169000E0,-1.445168117E1,3.553007966E0,6.246669359E0,1.613988328E1
2.607116000E0,-1.744240334E1,2.569416831E0,1.123057870E1,2.090371343E1
2.617062000E0,-2.021667327E1,1.406966386E0,1.876916814E1,2.762200401E1
2.627009000E0,-2.154793225E1,1.931604302E-1,2.629385992E1,3.399584923E1
2.636956000E0,-2.020804044E1,-1.047856128E0,3.287085486E1,3.859994819E1
2.646902000E0,-1.717444415E1,-2.524410812E0,3.684614523E1,4.073048736E1
2.656849000E0,-1.347303853E1,-3.708866669E0,3.806856180E1,4.055235945E1
2.666795000E0,-9.080182117E0,-4.669812123E0,3.791420466E1,3.926504511E1
2.676742000E0,-2.896592520E0,-5.914471496E0,3.703905190E1,3.761997590E1
2.686688000E0,3.102188809E0,-7.389221145E0,3.517499697E1,3.607637144E1
2.696635000E0,8.994314001E0,-8.643043106E0,3.091723462E1,3.333879535E1
2.706581000E0,1.625914440E1,-9.388131577E0,2.426138647E1,3.067754333E1
2.716528000E0,2.327601836E1,-9.287937198E0,1.596817526E1,2.971567649E1
2.726474000E0,2.788135558E1,-8.906153777E0,7.774756140E0,3.028425989E1
2.736421000E0,2.966594685E1,-7.881736212E0,1.548423396E0,3.073414686E1
2.746368000E0,2.956345919E1,-5.864007102E0,-2.607473434E0,3.025200185E1
2.756314000E0,2.833237471E1,-4.984389401E0,-4.627231529E0,2.913724191E1
2.766261000E0,2.583756426E1,-5.278302035E0,-4.191297044E0,2.670219411E1
2.776207000E0,2.303688596E1,-5.351434330E0,-1.580415852E0,2.370303099E1
2.786154000E0,2.137825775E1,-5.203443641E0,5.998132288E-1,2.201057714E1
2.796100000E0,2.046178388E1,-4.876933950E0,8.065093786E-1,2.105040478E1
2.806047000E0,1.953497213E1,-4.549319719E0,-3.578384882E-1,2.006089466E1
2.815993000E0,1.816107292E1,-4.439141219E0,-1.316689469E0,1.874204406E1
2.825940000E0,1.698701399E1,-4.225526059E0,-1.426075087E0,1.756267078E1
2.835886000E0,1.560620454E1,-3.982855500E0,-1.338904796E0,1.616197464E1
2.845833000E0,1.409083195E1,-3.360279061E0,-1.534906973E0,1.456705048E1
2.855780000E0,1.297022476E1,-2.525603060E0,-2.330187943E0,1.341771877E1
2.865726000E0,1.167079920E1,-2.122377899E0,-2.147919121E0,1.205510674E1
2.875673000E0,1.010592525E1,-2.283272223E0,-1.356667467E0,1.044909583E1
2.885619000E0,8.272554166E0,-2.968824345E0,-1.189907289E0,8.869326343E0
2.895566000E0,6.356821547E0,-3.632242416E0,-1.488251454E0,7.471094802E0
2.905512000E0,4.725044337E0,-3.273563098E0,-1.497444447E0,5.940084108E0
2.915459000E0,5.250602605E0,-2.004979842E0,-9.215171669E-1,5.695433765E0
2.925405334E0,6.743003828E0,-2.859569120E-1,-5.736036694E-1,6.773395983E0
2.935352333E0,7.377817905E0,1.205513434E0,-4.311481006E-1,7.488080419E0
2.945298333E0,6.937294525E0,1.946296601E0,-9.604576497E-1,7.268879190E0
2.955245333E0,5.365927824E0,1.782245364E0,-1.322134396E0,5.806687465E0
2.965192333E0,3.630409899E0,8.518405026E-1,-7.725114010E-1,3.808186201E0
2.975138333E0,2.318671267E0,1.423422790E-1,3.090884972E-1,2.343508794E0
2.985085333E0,1.557196559E0,2.371899641E-1,1.506311457E0,2.179471130E0
2.995031334E0,1.839164646E0,1.038080168E0,1.550949394E0,2.620225382E0
3.004978333E0,2.717693742E0,1.995985070E0,8.068900323E-1,3.467115112E0
3.014924333E0,3.042561243E0,2.274876207E0,2.421652868E-1,3.806689467E0
3.024871334E0,2.830913086E0,2.090868423E0,-8.467594184E-2,3.520364992E0
3.034817333E0,2.560227347E0,1.864886402E0,-4.298301382E-1,3.196454177E0
3.044764333E0,1.880966537E0,1.280317449E0,-4.655991644E-1,2.322505213E0
3.054710333E0,1.124788675E0,5.059244871E-1,-3.040324098E-1,1.270253855E0
3.064657334E0,5.919678734E-1,4.034812689E-1,-4.613073081E-1,8.520724910E-1
3.074604333E0,-2.503923923E-2,3.729359990E-1,-2.644526070E-1,4.578683263E-1
3.084550333E0,-5.706538953E-1,-7.507240176E-3,2.654051185E-2,5.713200728E-1
3.094497334E0,-1.001614739E0,-1.492250365E-1,1.511645579E-1,1.023890092E0
3.104443333E0,-1.119146989E0,-3.681541461E-1,3.873797911E-1,1.240197791E0
3.114390333E0,-6.757064335E-1,-6.302538335E-1,7.984349585E-1,1.221186907E0
3.124336333E0,-2.154535246E-1,-5.166886264E-1,1.310696073E0,1.425240876E0
3.134283334E0,-2.551374078E-2,-4.053593946E-1,1.465559580E0,1.520799813E0
3.144229333E0,-1.762302558E-1,-4.093799400E-1,1.184548389E0,1.265623927E0
3.154176333E0,-4.286166948E-1,-5.778674591E-1,3.439842416E-1,7.974761625E-1
3.164122334E0,-8.053634705E-1,-8.463026047E-1,-6.223845045E-1,1.323707252E0
3.174069333E0,-1.149494185E0,-9.637141103E-1,-1.034469074E0,1.822143801E0
3.184016333E0,-1.174365170E0,-6.648991710E-1,-8.802042494E-1,1.611205754E0
3.193962333E0,-6.996678847E-1,-2.452515203E-1,-6.208504875E-1,9.670257416E-1
3.203909333E0,-2.361126146E-1,-4.756943822E-2,-6.584841907E-2,2.496958800E-1
3.213855333E0,4.126116961E-2,7.207511902E-2,2.487206733E-1,2.622199082E-1
3.223802333E0,1.231818303E-1,1.899929935E-1,5.929357338E-1,6.346998387E-1
3.233748334E0,3.165020357E-1,1.904818207E-1,8.416347724E-1,9.191332617E-1
3.243695333E0,2.278768113E-1,6.402993500E-2,7.799197501E-1,8.150475387E-1
3.253641333E0,-1.681700152E-1,1.047505295E-1,3.067080226E-1,3.651350963E-1
3.263588334E0,-3.594933964E-1,8.982901990E-2,9.335328296E-2,3.821250978E-1
3.273534333E0,-5.177611519E-1,-1.807701802E-1,1.154252064E-1,5.604261296E-1
3.283481333E0,-4.184904867E-1,-1.876523530E-1,1.353419924E-1,4.781894478E-1
3.293428333E0,-2.015846600E-1,-5.010712981E-2,1.397985209E-1,2.503811615E-1
3.303374334E0,1.514284135E-1,-2.083830714E-2,1.742338702E-2,1.538452921E-1
3.313321333E0,7.191081226E-1,1.206029159E-1,-1.417254708E-1,7.427971893E-1
3.323267333E0,1.101580199E0,2.100799334E-1,-2.190777019E-1,1.142631854E0
3.333214334E0,9.821407333E-1,-1.737324715E-2,-2.459158371E-1,1.012608932E0
3.343160333E0,5.504073264E-1,-5.192064375E-1,-3.677828479E-1,8.413012379E-1
3.353107333E0,-6.567124844E-2,-7.471349967E-1,-4.943312126E-1,8.982687593E-1
3.363053333E0,-4.814823948E-1,-7.397926480E-1,-4.620307548E-1,9.962885510E-1
3.373000333E0,-5.260659523E-1,-7.585037380E-1,-3.201866587E-1,9.770326521E-1
3.382946333E0,-3.362393121E-1,-6.167151904E-1,4.282939285E-3,7.024335162E-1
3.392893333E0,-9.123922214E-2,-4.338014209E-1,3.537758428E-1,5.671557241E-1
3.402840334E0,2.609529023E-1,-3.064104724E-1,1.982545245E-1,4.486520381E-1
3.412786333E0,2.800418687E-1,7.428302765E-3,-1.815295874E-1,3.338137489E-1
3.422733333E0,1.140804930E-1,2.244366020E-1,-6.120738168E-1,6.618311752E-1
3.432679333E0,2.251601949E-2,3.244380230E-1,-7.148721072E-1,7.853719702E-1
3.442626333E0,-4.420933574E-3,3.131049496E-1,-3.197169811E-1,4.475189405E-1
3.452572333E0,2.099770224E-1,3.725787342E-1,2.023699410E-1,4.731372487E-1
3.462519333E0,2.866335811E-1,4.362759626E-1,4.364734523E-1,6.804444135E-1
3.472465334E0,1.619510628E-1,4.068861026E-1,3.137183225E-1,5.387055161E-1
3.482412333E0,-3.647449270E-2,3.861086065E-1,-4.453824162E-3,3.878531696E-1
3.492358333E0,-2.526182811E-1,3.967575556E-1,-7.693079308E-2,4.766035048E-1
3.502305334E0,-1.063327861E-1,2.974127769E-1,6.049193099E-2,3.215902595E-1
3.512252333E0,1.829462215E-1,3.051837265E-1,8.086421505E-2,3.648910087E-1
3.522198333E0,3.232785201E-1,3.574408776E-1,8.219533369E-2,4.889059781E-1
3.532145333E0,4.916372542E-1,3.833370262E-1,1.605427609E-1,6.437611696E-1
3.542091334E0,7.763886166E-1,4.558308059E-1,3.091246037E-1,9.519028460E-1
3.552038333E0,9.993384178E-1,4.280752426E-1,2.420240034E-1,1.113777942E0
3.561984333E0,7.042838229E-1,2.923391479E-1,-1.186651486E-1,7.717248850E-1
3.571931334E0,1.901378582E-1,1.259993112E-1,-3.913991672E-1,4.530138404E-1
3.581877333E0,7.157722861E-3,-4.077965140E-2,-5.302296084E-1,5.318436336E-1
3.591824333E0,-5.314168856E-2,-2.443200588E-1,-6.372225451E-1,6.845209290E-1
3.601770333E0,-1.973873824E-1,-4.218619913E-1,-4.128911930E-1,6.224214454E-1
3.611717333E0,-3.413227352E-1,-5.199905491E-1,3.366987571E-2,6.229165604E-1
3.621664333E0,-4.074581064E-1,-4.516132092E-1,2.325173078E-1,6.511842272E-1
3.631610333E0,-4.450627197E-1,-3.632483321E-1,1.238146453E-1,5.876735843E-1
3.641557334E0,-5.513066281E-1,-3.974007493E-1,-2.333229080E-2,6.800079041E-1
3.651503333E0,-3.678248017E-1,-2.730491835E-1,-3.998340681E-2,4.598365080E-1
3.661450333E0,-9.347446650E-2,-1.215332079E-1,1.324679397E-1,2.026216957E-1
3.671396333E0,-1.431296065E-1,-1.448086345E-1,2.521850024E-1,3.241186516E-1
3.681343333E0,-4.073641124E-1,-2.171468782E-1,4.237045951E-1,6.265970561E-1
3.691289333E0,-6.738047728E-1,-3.082956147E-1,5.130251996E-1,9.012513042E-1
3.701236333E0,-9.450705555E-1,-3.381129062E-1,3.693183267E-1,1.069520789E0
3.711182334E0,-1.039756565E0,-2.077708679E-1,9.075346470E-2,1.064189194E0
3.721129333E0,-8.167914149E-1,3.369458020E-2,-2.322372262E-1,8.498339070E-1
3.731076333E0,-5.197844347E-1,2.768025112E-1,-5.433630395E-1,8.012732876E-1
3.741022334E0,-4.693693028E-1,3.554621798E-1,-5.817207742E-1,8.276834919E-1
3.750969333E0,-2.587794922E-1,4.647179890E-1,-2.950716980E-1,6.082737392E-1
3.760915333E0,2.271631587E-1,6.227927864E-1,2.777328032E-1,7.187554976E-1
3.770862333E0,5.350006440E-1,6.453566068E-1,8.949941236E-1,1.226264784E0
3.780808334E0,5.342783667E-1,5.355745482E-1,1.148313632E0,1.375106420E0
3.790755333E0,3.511128746E-1,4.697553653E-1,8.701194835E-1,1.049313237E0
3.800701333E0,2.189206311E-1,4.380494231E-1,4.343148065E-1,6.545554911E-1
3.810648334E0,-9.148261249E-2,4.040882099E-1,-1.764280379E-2,4.146897856E-1
3.820594333E0,-3.195076507E-1,3.078757846E-1,-2.752782152E-1,5.221596819E-1
3.830541333E0,-4.171978135E-1,2.280215299E-1,-3.211197281E-1,5.737296519E-1
3.840488333E0,-4.034710363E-1,1.043067259E-1,-1.116433735E-1,4.314313538E-1
3.850434333E0,-1.142605872E-1,-1.272412598E-2,4.393679702E-1,4.541603224E-1
3.860381333E0,-1.174710010E-1,-1.168109965E-1,6.562813984E-1,6.768674308E-1
3.870327333E0,-4.467733227E-1,-2.618909419E-1,5.325823818E-1,7.428574969E-1
3.880274334E0,-7.906214704E-1,-2.474605983E-1,1.422715276E-1,8.405713799E-1
3.890220333E0,-5.833674963E-1,-1.570702457E-1,-4.644624656E-1,7.620459827E-1
3.900167333E0,7.386626735E-2,-3.387701333E-2,-2.203345317E0,2.204843410E0
3.910113333E0,-7.162188672E-1,3.346735740E-1,4.837055793E-1,9.267939114E-1
3.920060333E0,-1.226890562E-1,-1.929762429E-1,9.750575624E-1,1.001513697E0
3.930006083E0,1.910377447E-1,-2.373197722E-1,5.587306917E-1,6.363930232E-1
3.939953083E0,-2.312727280E-1,1.191264939E-1,1.934118605E-1,3.241702393E-1