"Time (s)","Linear Acceleration x (m/s^2)","Linear Acceleration y (m/s^2)","Linear Acceleration z (m/s^2)","Absolute acceleration (m/s^2)"
7.234875113E-3,-1.137967422E0,-2.650572091E-1,-5.710431737E-1,1.300505857E0
1.718087518E-2,-1.325971778E0,6.846826404E-1,-2.024604267E-1,1.505981971E0
2.712787502E-2,-1.196982785E-1,5.688680094E-1,-2.694034445E-1,6.407157763E-1
3.707387508E-2,3.757925101E-2,-2.224298376E-1,-4.058949995E-1,4.643683703E-1
4.701987514E-2,-9.787478864E-2,-1.579344642E-1,-3.615994173E-1,4.065426273E-1
5.696587497E-2,-1.831098705E-1,1.428381228E-1,1.950087716E-1,3.032496909E-1
6.691287505E-2,-1.701354837E-1,2.274525958E-1,1.084705866E0,1.121279440E0
7.685887511E-2,-2.267981462E-2,-8.364968240E-2,1.277973300E0,1.280908818E0
8.680487517E-2,5.670461632E-2,-4.054324847E-1,3.221898051E-1,5.209579481E-1
9.675187501E-2,-6.236885067E-2,-1.805269361E-1,-8.948795182E-1,9.150350814E-1
1.066978751E-1,-1.118065474E-1,1.353630424E-2,-1.635890141E0,1.639762327E0
1.166438751E-1,-5.800562181E-2,-2.703577101E-1,-1.775129887E0,1.796536685E0
1.265898750E-1,3.147351168E-1,-4.440732247E-1,-8.763830209E-1,1.031652278E0
1.365358750E-1,6.947627286E-1,-2.436756957E-1,3.460020061E-1,8.135050596E-1
1.464828751E-1,5.325465311E-1,-2.241237760E-2,9.192378491E-1,1.062594158E0
1.564288752E-1,-7.229632650E-2,1.881481969E-1,3.418434298E-1,3.968418241E-1
1.663748750E-1,-5.121296255E-1,6.128063267E-1,1.503176472E0,1.702159762E0
1.763218751E-1,-2.750373464E-1,7.375829852E-1,1.657643538E0,1.835063023E0
1.862678751E-1,5.209676188E-1,5.954032588E-1,3.404991184E-1,8.613082782E-1
1.962138750E-1,2.091679286E0,9.778959471E-1,-6.068538247E-1,2.387399062E0
2.061598750E-1,1.007332146E0,1.155918521E-1,-8.132775307E-1,1.299807629E0
2.161068751E-1,4.014380325E-1,-1.002662998E-1,-1.436950908E0,1.495337332E0
2.260528752E-1,2.111338027E-1,1.516001755E-1,-1.768290399E0,1.787291535E0
2.359988750E-1,3.915202411E-2,-7.513672113E-2,-9.998189127E-1,1.003402345E0
2.459448751E-1,4.150840451E-1,-2.620686972E-1,2.665255181E-1,5.585791066E-1
2.558918751E-1,1.091954294E0,9.430857182E-2,1.263666918E0,1.672755919E0
2.658378750E-1,1.421479906E0,4.798616928E-1,1.169264790E0,1.902117903E0
2.757838750E-1,1.133231324E0,2.178327566E-1,3.957793895E-1,1.219961339E0
2.857298751E-1,4.824203247E-1,-1.708825386E-1,-3.682027511E-1,6.304787685E-1
2.956768752E-1,1.663216738E-1,-2.245804435E-1,-7.604771733E-1,8.102004727E-1
3.056228750E-1,3.654848921E-1,-7.218036890E-2,-7.167979608E-1,8.078295170E-1
3.155688751E-1,6.818624552E-1,-8.239603937E-2,-1.520242448E-1,7.034464345E-1
3.255148751E-1,6.576465771E-1,-2.632013029E-1,6.795066851E-1,9.815820298E-1
3.354618750E-1,3.175323882E-1,-3.994700789E-1,8.861577382E-1,1.022584323E0
3.454078750E-1,-4.878626207E-2,-4.306550342E-1,6.586918399E-1,7.884914697E-1
3.553538751E-1,-1.699336634E-1,-3.875078452E-1,3.005223262E-1,5.189927250E-1
3.652998751E-1,-3.987296753E-2,-2.721779484E-1,1.656172670E-2,2.755811675E-1
3.752468750E-1,1.184857670E-1,-1.748557216E-1,1.668736875E-2,2.118770130E-1
3.851928751E-1,1.692974863E-1,-7.195466638E-2,1.951841515E-1,2.682088102E-1
3.951388751E-1,2.154432920E-1,-1.012784529E-1,1.977540028E-1,3.094830895E-1
4.050848749E-1,2.699560795E-1,-5.066086113E-2,2.699308634E-2,2.759917289E-1
4.150318750E-1,8.170089679E-2,-8.107164502E-2,-2.428880757E-1,2.687792133E-1
4.249778751E-1,-4.197220565E-1,-2.880244875E-1,-3.999027729E-1,6.473383489E-1
4.349238751E-1,-7.022457759E-1,-3.996109968E-1,-1.162895711E-1,8.163095877E-1
4.448698750E-1,-8.284019387E-1,-4.308836603E-1,3.255962833E-1,9.889001165E-1
4.548168750E-1,-8.900664557E-1,-4.554852355E-1,6.559464991E-1,1.195805546E0
4.647628751E-1,-6.888420573E-1,-3.501061302E-1,7.937636179E-1,1.107762774E0
4.747088752E-1,-2.943623211E-1,-3.199947238E-2,3.161973958E-1,4.331904147E-1
4.846548750E-1,-6.427793917E-2,2.202038026E-1,-5.666753036E-1,6.113446392E-1
4.946018751E-1,1.940233696E-1,3.778546768E-1,-9.633855698E-1,1.052867979E0
5.045478751E-1,2.445831835E-1,4.785776442E-1,-6.526762245E-1,8.454843282E-1
5.144938750E-1,2.058808651E-1,3.200742459E-1,-3.118630010E-1,4.920294553E-1
5.244404585E-1,-3.666254464E-2,1.986661685E-1,-1.072051907E-1,2.287036108E-1
5.343864583E-1,-2.383119534E-1,1.787640005E-1,5.623852015E-2,3.031697976E-1
5.443324584E-1,-2.648204334E-1,4.843307197E-2,3.136610198E-1,4.133507709E-1
5.542784585E-1,-4.127539296E-1,-1.082804936E-1,3.803203746E-1,5.716065597E-1
5.642254583E-1,-4.080431934E-1,-1.807894760E-1,4.090324692E-1,6.053855327E-1
5.741714584E-1,-2.599211976E-1,-2.851213449E-1,4.201486109E-1,5.704192016E-1
5.841174584E-1,-2.308189841E-1,-2.615430325E-1,3.230439737E-1,4.754361894E-1
5.940634585E-1,5.859275535E-3,-1.003019679E-1,4.010258768E-1,4.134205725E-1
6.040104583E-1,3.044951438E-1,-2.847184718E-2,5.066903262E-1,5.918302335E-1
6.139564584E-1,3.254373121E-1,5.935800970E-2,3.922025746E-1,5.130844735E-1
6.239024585E-1,2.464802761E-1,5.955038309E-2,5.548130572E-2,2.595707031E-1
6.338484583E-1,1.675521290E-1,-1.466247797E-2,-2.464542925E-1,2.983763102E-1
6.437954584E-1,7.735904681E-2,-6.644074202E-2,-3.081494343E-1,3.245841466E-1
6.537414584E-1,5.031327614E-2,-1.005516440E-1,-1.285141987E-1,1.707570148E-1
6.636874585E-1,2.096198124E-1,-1.324563915E-1,1.850668605E-1,3.094105755E-1
6.736334583E-1,1.637681582E-1,-1.146656531E-1,2.889875239E-1,3.514000720E-1
6.835804584E-1,1.187251465E-1,-1.343450421E-1,1.342526561E-1,2.239822011E-1
6.935264585E-1,1.493603721E-1,-6.998532414E-2,1.037149876E-1,1.948416409E-1
7.034724583E-1,3.878921169E-1,7.003385603E-2,2.631556946E-1,4.739366571E-1
7.134184584E-1,6.386051924E-1,2.248225182E-1,2.137543237E-1,7.099666664E-1
7.233654584E-1,6.834085321E-1,3.718174267E-1,-9.408169985E-3,7.780642224E-1
7.333114585E-1,4.341072303E-1,2.494767183E-1,-8.141370714E-2,5.072631586E-1
7.432574583E-1,2.230038332E-1,6.672257781E-3,1.786909103E-2,2.238180802E-1
7.532044584E-1,6.169838060E-3,-1.421399653E-1,1.582589847E-1,2.128091701E-1
7.631504585E-1,-3.028605730E-1,-3.013473684E-1,1.740751183E-1,4.613425082E-1
7.730964583E-1,-4.200184738E-1,-4.214117557E-1,6.453513443E-2,5.984715279E-1
7.830424584E-1,-2.475266536E-1,-3.234492588E-1,-2.857892431E-2,4.082959982E-1
7.929894584E-1,2.368431602E-2,-1.693534917E-1,1.522280934E-1,2.289431029E-1
8.029354585E-1,1.592955133E-1,-5.895396709E-2,2.267678138E-1,2.833271469E-1
8.128814583E-1,4.344957230E-2,5.786463082E-2,-3.380699292E-2,7.986922813E-2
8.228274584E-1,-6.782429374E-2,1.567410475E-1,-3.561125363E-1,3.949481350E-1
8.327744585E-1,-1.682459925E-1,1.080214620E-1,-4.711553349E-1,5.118229184E-1
8.427204583E-1,-3.649574367E-1,-6.675532222E-2,-2.712641016E-1,4.596024549E-1
8.526664583E-1,-4.492321499E-1,-2.111488044E-1,4.047311112E-2,4.980275242E-1
8.626124584E-1,-3.115783147E-1,-1.891433930E-1,1.496806808E-1,3.940311860E-1
8.725594585E-1,-3.309813131E-1,1.426954508E-2,-1.003206789E-1,3.461451837E-1
8.825054583E-1,-2.203721293E-1,2.225754333E-1,-4.726210856E-1,5.669871158E-1
8.924514584E-1,-1.496422079E-1,3.129125762E-1,-6.290165627E-1,7.183097569E-1
9.023974584E-1,-3.472828753E-1,3.274978709E-1,-5.883042274E-1,7.576028741E-1
9.123444583E-1,-3.818216838E-1,2.364789426E-1,-1.896689115E-1,4.875288550E-1
9.222904583E-1,-4.646045530E-1,7.101501882E-2,4.845470667E-2,4.724916742E-1
9.322364584E-1,-5.873006990E-1,-2.240945399E-2,-4.666370451E-2,5.895776420E-1
9.421824585E-1,-5.535377064E-1,2.914837003E-3,-2.179081857E-1,5.948919785E-1
9.521294583E-1,-4.520890995E-1,3.906290889E-2,-3.765875852E-1,5.896852331E-1
9.620754584E-1,-5.444397312E-1,5.192619860E-2,-3.550985561E-1,6.520781667E-1
9.720214584E-1,-7.565620239E-1,2.566050589E-2,-2.584921016E-1,7.999141980E-1
9.819674585E-1,-8.596874660E-1,1.874208033E-2,-2.386432164E-1,8.923925087E-1
9.919144583E-1,-8.871747883E-1,1.072975767E-1,-2.720931637E-1,9.341448307E-1
1.001860458E0,-8.850973456E-1,2.041210359E-1,-3.289410368E-1,9.660563722E-1
1.011806458E0,-9.569670081E-1,2.610074276E-1,-2.602572298E-1,1.025497225E0
1.021753458E0,-1.174911958E0,2.585358095E-1,1.142255040E-1,1.208431355E0
1.031699458E0,-1.368523867E0,5.530588925E-2,5.098294039E-1,1.461452133E0
1.041645458E0,-1.471684100E0,-1.003083998E-1,4.572007354E-1,1.544327807E0
1.051591458E0,-1.249034991E0,-1.119566381E-2,-4.960777760E-2,1.250069872E0
1.061538458E0,-9.474063720E-1,1.840533918E-1,-4.241002323E-1,1.054189495E0
1.071484458E0,-5.519443401E-1,4.545239532E-1,-5.419708174E-1,8.971995015E-1
1.081430458E0,1.882023020E-1,7.637311488E-1,-5.944274316E-1,9.859256288E-1
1.091376458E0,8.550898004E-1,8.951344568E-1,-5.276655313E-1,1.345687622E0
1.101323458E0,1.070483683E0,7.426437503E-1,-2.628908888E-1,1.329122521E0
1.111269458E0,1.026610270E0,3.425626373E-1,1.193328276E-1,1.088815012E0
1.121215458E0,1.079934757E0,-5.813243330E-2,3.428976097E-1,1.134555962E0
1.131161458E0,1.009161302E0,-5.571332324E-1,7.136840992E-1,1.355783524E0
1.141108458E0,1.412018526E0,-8.489759517E-1,1.139582497E0,2.003298468E0
1.151054458E0,2.460028875E0,-7.796314824E-1,1.526823782E0,2.998459300E0
1.161000458E0,3.544432440E0,-4.756113517E-1,1.522062394E0,3.886628540E0
1.170946458E0,3.809960057E0,-3.682974029E-1,1.081652450E0,3.977613686E0
1.180893458E0,3.930707400E0,-1.860385215E-1,3.253835177E-1,3.948537125E0
1.190839458E0,5.012253138E0,-2.636316580E-1,2.142576959E-1,5.023752535E0
1.200785458E0,5.946686731E0,-7.703168678E-1,7.987523892E-1,6.049336867E0
1.210731458E0,8.060434724E0,-9.134374112E-1,1.623012818E0,8.272795565E0
1.220678458E0,1.205915840E1,-5.546341324E-1,2.720021226E0,1.237454790E1
1.230624458E0,1.753385613E1,5.785007125E-1,4.000929828E0,1.799383820E1
1.240570458E0,2.479259665E1,2.152687526E0,6.097189969E0,2.562191714E1
1.250517458E0,3.197521345E1,3.057282193E0,7.090745929E0,3.289437532E1
1.260463458E0,3.715811524E1,3.690570146E0,5.376694887E0,3.772604782E1
1.270409458E0,3.982595650E1,4.357578408E0,3.120262552E0,4.018496409E1
1.280355458E0,4.289733984E1,4.454862043E0,2.250202711E0,4.318669903E1
1.290302458E0,4.683434498E1,3.709091202E0,4.734342579E0,4.721892869E1
1.300248458E0,4.670203418E1,2.121440005E0,1.041714798E1,4.789673764E1
1.310194458E0,4.337761610E1,-1.893328428E-2,1.746245695E1,4.676061740E1
1.320140458E0,4.204671029E1,-9.084854043E-1,2.302500207E1,4.794686551E1
1.330087458E0,4.329664385E1,-5.444213855E-1,2.554877729E1,5.027559830E1
1.340033458E0,4.274047541E1,-1.807404764E0,2.820636254E1,5.124074392E1
1.349979458E0,3.948011942E1,-4.256581206E0,3.357117120E1,5.199828698E1
1.359925458E0,3.378501791E1,-6.100588955E0,3.989932736E1,5.263649822E1
1.369872458E0,2.301255920E1,-6.617813771E0,4.440179100E1,5.044692641E1
1.379818458E0,1.140089757E1,-5.108125840E0,4.752147234E1,4.913617556E1
1.389764458E0,1.039058992E0,-1.661091641E0,5.161911219E1,5.165628338E1
1.399710458E0,-9.586838091E0,2.987763476E0,5.574710143E1,5.664427167E1
1.409657458E0,-1.358748374E1,2.762648013E0,7.478098121E1,7.605555265E1
1.419603458E0,-2.028896591E1,-2.467555996E0,9.913036360E1,1.012154136E2
1.429549458E0,-3.433136069E1,-4.998295249E0,9.628799932E1,1.023474675E2
1.439495459E0,-4.430396474E1,-2.272725016E0,7.340434550E1,8.576831880E1
1.449442458E0,-4.359228843E1,1.381062636E0,5.004605681E1,6.638375364E1
1.459388458E0,-3.821707172E1,4.301252764E0,2.815405802E1,4.766231561E1
1.469334458E0,-3.243423391E1,7.778313586E0,8.156702113E0,3.433676574E1
1.479281458E0,-2.815525085E1,8.276163068E0,-4.853442176E0,2.974506559E1
1.489227458E0,-2.549263935E1,5.161881632E0,-8.072902742E0,2.723401259E1
1.499173458E0,-2.463320857E1,7.077083910E-1,-6.409218446E0,2.546318709E1
1.509119458E0,-2.491990457E1,-2.934077266E0,-3.505502847E0,2.533572583E1
1.519066458E0,-2.313216516E1,-4.692425060E0,9.171942472E-2,2.360348132E1
1.529012833E0,-1.936674540E1,-4.017544107E0,3.428423681E0,2.007400251E1
1.538958833E0,-1.577570714E1,-2.777123964E0,4.592088593E0,1.666351196E1
1.548904833E0,-1.257976992E1,-1.748663051E0,2.639820231E0,1.297216576E1
1.558851833E0,-9.593062452E0,-3.780107975E-1,1.509213046E-1,9.601693424E0
1.568797833E0,-7.125190122E0,1.091148913E-1,-8.504471111E-1,7.176593943E0
1.578743833E0,-5.351389307E0,1.236171556E-1,-1.185185004E0,5.482454944E0
1.588689833E0,-3.510678218E0,4.683029169E-1,-1.210026315E0,3.742770746E0
1.598636833E0,-2.013083790E0,6.608540672E-1,-5.414580166E-1,2.186872476E0
1.608582833E0,-9.308514427E-1,6.545303035E-1,7.932800531E-2,1.140695954E0
1.618528833E0,-3.430024941E-1,6.879904103E-1,4.288266098E-1,8.802691503E-1
1.628474833E0,-1.404344056E-1,4.822444332E-1,4.659494126E-1,6.851206979E-1
1.638421833E0,2.536434442E-1,5.786977637E-1,2.798594356E-2,6.324628934E-1
1.648367833E0,5.216005799E-1,1.125158658E0,-7.729083538E-1,1.461313277E0
1.658313833E0,1.080671287E0,1.548763704E0,-1.360813728E0,2.327731394E0
1.668260833E0,1.740806439E0,1.900686564E0,-1.587812580E0,3.027237233E0
1.678206833E0,1.561612084E0,1.952827941E0,-1.756064456E0,3.055475681E0
1.688152833E0,1.119360632E0,1.582119146E0,-1.833269337E0,2.667760424E0
1.698098833E0,5.392250381E-1,1.279301788E0,-1.548250319E0,2.079532581E0
1.708045834E0,-3.422310637E-1,7.711723155E-1,-9.715201432E-1,1.286732385E0
1.717991833E0,-9.121314356E-1,1.096107352E-1,-1.520667833E-1,9.311941664E-1
1.727937833E0,-1.053689603E0,-6.014679909E-2,4.837617856E-1,1.160993059E0
1.737883833E0,-1.949179936E-1,3.729085171E-1,1.036282734E0,1.118452365E0
1.747830833E0,8.468512928E-1,9.553566849E-1,1.138870963E0,1.710815764E0
1.757776833E0,1.381814003E0,1.176479670E0,6.483106202E-1,1.927127659E0
1.767722833E0,1.581160203E0,1.078193822E0,-5.744819212E-1,1.998148889E0
1.777668833E0,1.446100631E0,8.215367228E-1,-1.760401921E0,2.421806050E0
1.787615833E0,7.364544725E-1,1.104808009E-1,-1.967779271E0,2.103978721E0
1.797561833E0,-3.160739464E-1,-7.900401109E-1,-1.480313859E0,1.707452851E0
1.807507833E0,-1.169285183E0,-1.490934741E0,-2.625271189E-1,1.912860353E0
1.817453833E0,-1.293743826E0,-1.692857224E0,1.022883840E0,2.363436062E0
1.827400833E0,-8.638847436E-1,-1.346164699E0,1.009865599E0,1.891635476E0
1.837346833E0,-2.146164043E-1,-7.014407605E-1,6.223429162E-2,7.361741971E-1
1.847292833E0,3.544719173E-1,-1.626689547E-1,-7.320480108E-1,8.294611619E-1
1.857239833E0,8.173175912E-1,1.631992972E-1,-9.041403383E-1,1.229679555E0
1.867185833E0,6.980560997E-1,5.840140522E-2,-9.965035415E-1,1.218077317E0
1.877131833E0,6.088703832E-1,-1.136663640E-1,-1.052256158E0,1.221018512E0
1.887077833E0,4.582754902E-1,-9.581247568E-3,-9.712868392E-1,1.074014129E0
1.897024833E0,3.961620167E-2,-1.646669483E-1,-9.399077564E-1,9.550451497E-1
1.906970833E0,-2.596905615E-1,-2.474787247E-1,-1.138997336E0,1.194152352E0
1.916916833E0,-3.813129760E-1,-3.130599260E-3,-1.347758065E0,1.400664552E0
1.926862833E0,-1.346601339E-1,2.459689736E-1,-1.215436159E0,1.247364881E0
1.936809833E0,9.856092285E-2,3.170389563E-1,-6.295778954E-1,7.117557739E-1
1.946755833E0,-2.327415120E-1,1.215799856E-1,3.410680890E-3,2.626060492E-1
1.956701833E0,-8.024253177E-1,-3.058134717E-1,3.105303475E-1,9.131469578E-1
1.966647833E0,-1.329671750E0,-5.800654274E-1,2.161510974E-1,1.466705205E0
1.976594833E0,-1.576619547E0,-8.076688814E-1,-1.170945865E-1,1.775322326E0
1.986540833E0,-1.590053964E0,-8.511978936E-1,-4.384593495E-1,1.856086222E0
1.996486833E0,-1.291373364E0,-7.019845515E-1,-4.088373184E-1,1.525639351E0
2.006433833E0,-1.194898107E0,-7.296103066E-1,-1.926780349E-1,1.413236537E0
2.016379833E0,-1.095991285E0,-7.689702541E-1,-2.440534258E-1,1.360909336E0
2.026325833E0,-8.389568207E-1,-4.849733287E-1,-6.031537066E-1,1.141421075E0
2.036271833E0,-6.305384468E-1,-3.239755082E-1,-9.536440355E-1,1.188265883E0
2.046218833E0,-6.166656353E-1,-1.807947385E-1,-1.163019379E0,1.328750285E0
2.056164833E0,-6.545964501E-1,-2.031848967E-2,-1.270472492E0,1.429338905E0
2.066110833E0,-5.209856721E-1,1.986807865E-1,-9.071767974E-1,1.064833258E0
2.076056833E0,-4.726920562E-1,2.716329879E-1,-2.389417533E-1,5.952440017E-1
2.086003833E0,-6.564939447E-1,2.559536791E-1,1.846229106E-1,7.284107388E-1
2.095949833E0,-6.942369908E-1,2.509958249E-1,3.022718132E-1,7.977043015E-1
2.105895833E0,-8.189057681E-1,1.436602414E-1,2.016207300E-1,8.555091120E-1
2.115841833E0,-7.256936223E-1,1.854046834E-1,-1.527193691E-1,7.644143744E-1
2.125788833E0,-5.344371186E-1,2.622207248E-1,-3.551990185E-1,6.932164778E-1
2.135734833E0,-6.113079777E-1,3.111338532E-1,-6.256520748E-1,9.284084430E-1
2.145680833E0,-6.797853050E-1,3.255624425E-1,-8.125898981E-1,1.108332670E0
2.155626833E0,-5.656097947E-1,3.947408509E-1,-9.143057227E-1,1.145290240E0
2.165573834E0,-7.516532133E-1,1.972441256E-1,-8.327996296E-1,1.139053564E0
2.175519833E0,-1.291079542E0,-2.031235009E-1,-8.253865296E-1,1.545771155E0
2.185465833E0,-1.705048669E0,-5.209962702E-1,-9.292324948E-1,2.010497726E0
2.195412833E0,-2.117730532E0,-9.942605495E-1,-1.062622102E0,2.569533494E0
2.205358833E0,-2.120250389E0,-1.284971248E0,-1.445570288E0,2.869893078E0
2.215304833E0,-1.533936335E0,-1.122601086E0,-2.094631691E0,2.828546588E0
2.225250833E0,-1.136439910E0,-7.467701304E-1,-2.852193443E0,3.159773525E0
2.235197834E0,-1.062078092E0,-7.520840800E-1,-2.969151204E0,3.241835778E0
2.245143833E0,-8.573955037E-1,-6.977839118E-1,-2.279213086E0,2.533148580E0
2.255089833E0,-5.142726300E-1,-5.182445705E-1,-1.243370063E0,1.441881717E0
2.265035833E0,-5.001350858E-1,-4.305281496E-1,3.352559566E-2,6.607674002E-1
2.274982833E0,-9.440793063E-1,-5.273024923E-1,1.279869552E0,1.675529685E0
2.284928833E0,-9.649738929E-1,-4.835202956E-1,2.125300922E0,2.383667447E0
2.294874833E0,-8.517083555E-1,-1.852128947E-1,2.159591333E0,2.328850718E0
2.304820833E0,-9.332508476E-1,2.762517035E-2,1.717700289E0,1.955048485E0
2.314767833E0,-5.936762106E-1,2.338371706E-1,1.753119798E0,1.865625979E0
2.324713833E0,-1.153345015E-1,2.922198647E-1,1.987618874E0,2.012293041E0
2.334659833E0,1.142613912E-1,2.543410170E-1,1.690476238E0,1.713316938E0
2.344606833E0,2.716643436E-1,1.069520062E-1,1.445740442E0,1.474925650E0
2.354552833E0,7.037159852E-1,-1.047511142E-1,1.519462722E0,1.677783045E0
2.364498833E0,1.322045080E0,-1.809947133E-2,1.591492817E0,2.069052965E0
2.374444833E0,1.932808828E0,4.234857631E-1,1.733053908E0,2.630316712E0
2.384391833E0,2.312879161E0,4.986756939E-1,2.413271030E0,3.379639704E0
2.394337833E0,2.574295163E0,2.492802519E-1,3.190410429E0,4.107049420E0
2.404283833E0,3.314036063E0,2.034193701E-1,3.202705370E0,4.613191537E0
2.414229833E0,4.528346926E0,4.631135130E-1,2.984705383E0,5.443240416E0
2.424176833E0,6.278270051E0,7.430583179E-1,3.096842700E0,7.039832754E0
2.434122833E0,8.227295548E0,8.105176449E-1,3.614914193E0,9.022911698E0
2.444068833E0,1.025487722E1,7.561519879E-1,4.461347775E0,1.120883118E1
2.454014833E0,1.318006379E1,7.623096907E-1,4.950412400E0,1.409970853E1
2.463961833E0,1.605150276E1,5.556211424E-1,5.009694396E0,1.682428286E1
2.473907833E0,1.825630769E1,-1.507605153E-1,5.461450278E0,1.905630967E1
2.483853833E0,2.040236213E1,-6.676461929E-1,6.367712570E0,2.138340233E1
2.493800833E0,2.130433491E1,-2.947084397E-1,6.578378980E0,2.229880286E1
2.503746833E0,2.281244643E1,7.447312063E-1,6.216571986E0,2.365603737E1
2.513692833E0,2.614375488E1,1.195235783E0,5.834955795E0,2.681363863E1
2.523638750E0,2.946341567E1,5.175633699E-1,3.548277569E0,2.968081886E1
2.533585750E0,3.192557527E1,-7.075692272E-1,1.714784868E0,3.197942303E1
2.543531750E0,3.468119727E1,-1.592951113E0,7.571267188E-1,3.472601587E1
2.553477750E0,3.642152043E1,-2.169640943E0,5.779247618E-1,3.649066305E1
2.563423750E0,3.652787895E1,-2.986067784E0,1.937250373E0,3.670089209E1
2.573370750E0,3.622137258E1,-4.177891717E0,3.912773112E0,3.667086588E1
2.583316750E0,3.675979121E1,-5.186107231E0,6.178170397E0,3.763439581E1
2.593262750E0,3.587001807E1,-6.958379585E0,1.041890331E1,3.799514165E1
2.603208750E0,3.538105519E1,-8.690541793E0,1.791006481E1,4.059698270E1
2.613155750E0,3.558621527E1,-9.686835419E0,2.672674567E1,4.554703538E1
2.623101750E0,3.480382040E1,-9.735678381E0,3.508504808E1,5.036913684E1
2.633047750E0,3.376353992E1,-7.942815642E0,4.630865690E1,5.785807335E1
2.642994750E0,2.960364827E1,-4.078036476E0,5.555671141E1,6.308371070E1
2.652940750E0,2.494232046E1,3.078238029E0,5.574378957E1,6.114707658E1
2.662886750E0,2.330186774E1,1.342821027E1,5.705755601E1,6.307819409E1
2.672832750E0,1.519858461E1,1.790829661E1,6.482349104E1,6.894772696E1
2.682779750E0,-1.249284229E0,1.000989058E1,7.725397921E1,7.790979351E1
2.692725750E0,-1.998381610E1,-2.468051255E-1,8.318408031E1,8.555118372E1
2.702671750E0,-3.793993943E1,-3.946723216E0,7.286257057E1,8.224335729E1
2.712617750E0,-4.951721124E1,-5.057249216E0,5.951028522E1,7.758224041E1
2.722564750E0,-5.307352055E1,-5.050062988E0,4.627992135E1,7.059839119E1
2.732510750E0,-5.218812112E1,-4.184251733E0,3.271515520E1,6.173645057E1
2.742456750E0,-4.850476351E1,-3.243608982E0,1.974183726E1,5.246878330E1
2.752403750E0,-4.253454583E1,-1.270339175E0,7.668885868E0,4.323902359E1
2.762349750E0,-3.533957972E1,1.273308976E0,-1.095329855E-1,3.536268100E1
2.772295750E0,-3.028056406E1,2.004517327E0,-1.917586187E0,3.040736401E1
2.782241750E0,-2.758656469E1,1.057643198E0,-2.682629451E0,2.773686467E1
2.792188750E0,-2.528029888E1,2.010687894E-1,-3.066938285E0,2.546644951E1
2.802134750E0,-2.157025224E1,3.878849906E-1,-3.374656194E0,2.183608346E1
2.812080750E0,-1.658779418E1,1.468962659E0,-3.542126883E0,1.702525858E1
2.822026750E0,-1.151503873E1,3.059359708E0,-2.897733897E0,1.226183757E1
2.831973750E0,-7.143227028E0,4.677399470E0,-2.166985137E0,8.809062536E0
2.841919750E0,-4.234179646E0,5.400876047E0,-1.876177375E0,7.114617410E0
2.851865750E0,-2.944475662E0,5.064569346E0,-8.537466949E-1,5.920192818E0
2.861811750E0,-2.678598381E0,3.940006519E0,1.024894697E0,4.873289422E0
2.871758750E0,-2.299946144E0,2.814064334E0,2.951220133E0,4.681710223E0
2.881704750E0,-6.515428879E-1,3.330144850E0,3.271335894E0,4.713386403E0
2.891650750E0,1.482888973E0,4.574905965E0,3.613463498E0,6.015466960E0
2.901597750E0,3.289385079E0,5.394953402E0,4.061278356E0,7.511295381E0
2.911543750E0,4.341818992E0,5.667595620E0,3.328556746E0,7.877329642E0
2.921489750E0,4.870580657E0,5.442783042E0,1.701572499E0,7.499452790E0
2.931435750E0,5.027834213E0,4.327258841E0,8.130500740E-1,6.683213028E0
2.941382750E0,4.192335217E0,2.422183356E0,1.134928771E0,4.972998099E0
2.951328750E0,3.252766014E0,9.065862286E-1,2.461513483E0,4.178688067E0
2.961274750E0,2.778051333E0,-8.613124073E-2,2.684728602E0,3.864292362E0
2.971220750E0,2.068635993E0,-3.735727608E-1,7.858651990E-1,2.244191523E0
2.981167750E0,1.188366182E0,-2.775515395E-1,-1.151317347E0,1.677730811E0
2.991113750E0,1.322395913E0,3.673215026E-1,-1.615824251E0,2.120033973E0
3.001059750E0,1.836520828E0,9.102664661E-1,-1.495314306E0,2.537195039E0
3.011006750E0,1.443016809E0,3.972703564E-1,-2.243759664E0,2.697142687E0
3.020952750E0,7.222352866E-2,-7.211774522E-1,-2.976050334E0,3.063035871E0
3.030898750E0,-6.659171712E-1,-1.479662479E0,-2.217913801E0,2.748088128E0
3.040844750E0,-1.146167558E-1,-1.821267343E0,-7.399101770E-1,1.969167033E0
3.050791750E0,2.496293672E-1,-1.863400040E0,-4.511968875E-1,1.933430413E0
3.060737750E0,4.990492944E-1,-1.495655783E0,-1.348562057E0,2.074766503E0
3.070683750E0,1.260682791E0,-4.995141846E-1,-2.554336862E0,2.891966861E0
3.080629750E0,1.977669690E0,3.313131791E-1,-3.262141147E0,3.829165796E0
3.090576750E0,1.755675470E0,2.992119652E-1,-3.678848233E0,4.087278860E0
3.100522750E0,3.803462851E-1,-4.314654583E-1,-3.468173053E0,3.515544064E0
3.110468750E0,-6.842286041E-1,-1.413329911E0,-2.201007746E0,2.703720644E0
3.120415750E0,-1.421624625E0,-1.970378943E0,-9.759336215E-1,2.618368994E0
3.130361750E0,-1.627007197E0,-1.997204214E0,-3.604422534E-1,2.601133544E0
3.140307750E0,-1.314085119E0,-1.743156728E0,-3.608211529E-1,2.212601858E0
3.150253750E0,-7.061131974E-1,-1.128401524E0,-6.978102243E-1,1.502938773E0
3.160200750E0,-1.573853741E-1,-7.385015827E-1,-9.636620700E-1,1.224254601E0
3.170146750E0,1.950521872E-1,-5.175867587E-1,-1.095990407E0,1.227654830E0
3.180092750E0,1.412855409E-2,-5.082347220E-1,-1.303733793E0,1.399365554E0
3.190038750E0,-3.338320135E-1,-7.945050448E-1,-1.331343176E0,1.585924567E0
3.199985750E0,-5.977244207E-1,-1.059910748E0,-9.107564628E-1,1.519921910E0
3.209931750E0,-6.519139668E-1,-1.230242479E0,-3.135125005E-1,1.427157477E0
3.219877750E0,-4.949704595E-1,-1.062224491E0,-4.281799078E-2,1.172667901E0
3.229824750E0,-3.205755716E-1,-7.429676861E-1,-1.524252176E-1,8.234094526E-1
3.239770750E0,-2.118839822E-1,-6.346497703E-1,5.722086151E-2,6.715276463E-1
3.249716750E0,-7.068004645E-2,-6.364021808E-1,3.385537863E-1,7.243079945E-1
3.259662750E0,-2.045471518E-1,-5.492541093E-1,9.456933936E-2,5.936859218E-1
3.269609750E0,-3.766381271E-1,-5.699889207E-1,-2.890559363E-1,7.418200475E-1
3.279555750E0,-4.824793085E-1,-5.276322752E-1,-5.679307008E-1,9.130867329E-1
3.289501750E0,-2.860055536E-1,-2.444475281E-1,-9.307270432E-1,1.003895711E0
3.299447750E0,-2.212594808E-1,-1.065374386E-1,-1.145899901E0,1.171918328E0
3.309394750E0,-3.877203915E-1,-1.638886839E-1,-1.082706703E0,1.161654169E0
3.319340750E0,-5.183364083E-1,-1.720823872E-1,-8.131336892E-1,9.795260980E-1
3.329286750E0,-6.800800046E-1,-1.674806285E-1,-7.131287599E-1,9.995555021E-1
3.339232750E0,-9.779263526E-1,-2.196465629E-1,-5.289344501E-1,1.133294408E0
3.349179750E0,-1.080010844E0,-3.322867405E-1,-6.412875295E-2,1.131790793E0
3.359125750E0,-5.367277654E-1,-4.125678420E-2,3.784353054E-1,6.580213497E-1
3.369071750E0,2.507822188E-1,3.622835416E-1,5.243385386E-1,6.848883039E-1
3.379018750E0,4.468987820E-1,5.223615950E-1,-4.509607513E-2,6.889222114E-1
3.388964750E0,2.047663858E-1,5.125751102E-1,-7.773838127E-1,9.534086787E-1
3.398910750E0,1.753136682E-1,4.420413172E-1,-9.014114428E-1,1.019155532E0
3.408856750E0,1.735632677E-1,1.558399916E-1,-5.218464553E-1,5.716065376E-1
3.418803750E0,-1.737513287E-1,-2.203634316E-1,1.950631142E-2,2.813006619E-1
3.428749750E0,-3.828270394E-1,-5.141807556E-1,7.729305732E-1,1.004171331E0
3.438695750E0,-3.505932764E-1,-5.915920436E-1,1.468128262E0,1.621202450E0
3.448641750E0,-1.195101626E-1,-2.940330863E-1,1.565945163E0,1.597786715E0
3.458588750E0,-2.000136958E-1,6.037717938E-2,9.757845175E-1,9.979009505E-1
3.468534750E0,-4.426308993E-1,3.344145423E-1,9.673633575E-2,5.631279764E-1
3.478480750E0,-7.364772036E-1,4.499754041E-1,-4.114054155E-1,9.561019567E-1
3.488427750E0,-7.382147768E-1,4.355304426E-1,-5.133141983E-1,9.990692114E-1
3.498373750E0,-6.537493347E-1,4.467775619E-1,-1.664620435E-1,8.091402811E-1
3.508319750E0,-4.533241045E-1,4.079362625E-1,4.439679748E-1,7.543356684E-1
3.518265750E0,9.270066060E-3,4.329646844E-1,7.202009672E-1,8.403771684E-1
3.528212833E0,6.963919821E-1,6.570223868E-1,8.067859519E-1,1.252015887E0
3.538158833E0,1.028421299E0,6.622737712E-1,1.182851381E0,1.701585821E0
3.548104833E0,9.416927652E-1,2.977507460E-1,1.505393736E0,1.800458573E0
3.558050833E0,6.917363559E-1,2.554473102E-2,1.032223012E0,1.242833885E0
3.567997833E0,7.828055703E-1,1.907127857E-2,5.985899913E-1,9.856258176E-1
3.577943833E0,1.251809203E0,-2.585229456E-2,6.248270327E-1,1.399322494E0
3.587889833E0,1.646196297E0,-1.278809452E-1,5.425303960E-1,1.738003169E0
3.597836833E0,2.330227119E0,-1.279224604E-1,3.894742638E-1,2.366012000E0
3.607782834E0,3.404876944E0,8.010217667E-2,8.539852613E-1,3.511252510E0
3.617728833E0,4.052602550E0,4.052196461E-1,1.300469878E0,4.275396156E0
3.627674833E0,4.432867742E0,4.217713594E-1,1.609759519E0,4.734926948E0
3.637621833E0,5.177291384E0,5.087750047E-1,1.957571202E0,5.558352552E0
3.647567833E0,6.119257361E0,8.825769764E-1,1.990669951E0,6.495153549E0
3.657513833E0,7.242946029E0,1.484621503E0,1.705299515E0,7.587648820E0
3.667459833E0,8.534774306E0,1.937675466E0,1.711280047E0,8.917703632E0
3.677406834E0,9.357240736E0,1.931407251E0,1.995312055E0,9.760612602E0
3.687352833E0,1.000373229E1,1.668770204E0,2.597182335E0,1.046923157E1
3.697298833E0,1.082383118E1,1.252732624E0,3.613997349E0,1.147979256E1
3.707245833E0,1.212029455E1,9.044812310E-1,4.385022315E0,1.292083770E1
3.717191833E0,1.380846640E1,4.783425862E-1,5.353843968E0,1.481776640E1
3.727137833E0,1.547070234E1,2.542006838E-1,5.626374503E0,1.646400130E1
3.737083833E0,1.679593868E1,2.083152437E-1,4.908683746E0,1.749977507E1
3.747030834E0,1.819222922E1,-5.277696848E-3,4.520204093E0,1.874538548E1
3.756976833E0,2.027726446E1,-8.333627164E-2,5.072479459E0,2.090225937E1
3.766922833E0,2.220599427E1,-5.709133655E-1,6.397279601E0,2.311616988E1
3.776868833E0,2.353040265E1,-1.405657194E0,7.687654846E0,2.479426865E1
3.786815833E0,2.531674808E1,-1.125493703E0,9.103613080E0,2.692731403E1
3.796761833E0,2.731361199E1,-1.568486363E-1,1.204269030E1,2.985103668E1
3.806707833E0,2.789114616E1,2.849348187E-1,1.558575800E1,3.195173038E1
3.816654833E0,2.844391386E1,2.916585320E-1,1.782069129E1,3.356662536E1
3.826600833E0,2.811392975E1,6.746739614E-1,1.867181668E1,3.375625822E1
3.836546833E0,2.683271592E1,-4.096033037E-2,1.912562026E1,3.295126207E1
3.846492833E0,2.542510634E1,-1.658722934E0,2.034659607E1,3.260630868E1
3.856439833E0,2.207094698E1,-3.819846822E0,2.403456362E1,3.285389138E1
3.866385833E0,1.742615392E1,-5.866025560E0,2.851837932E1,3.393197689E1
3.876331833E0,1.529384979E1,-5.920187734E0,3.248731961E1,3.639198263E1
3.886278833E0,1.507446226E1,-3.327910629E0,3.787719646E1,4.090227883E1
3.896224833E0,1.323339157E1,-3.996127510E-1,4.464086728E1,4.656274663E1
3.906170833E0,7.992961949E0,2.908770517E0,4.995208504E1,5.067108827E1
3.916116833E0,-1.089336276E0,7.545552887E0,5.302292576E1,5.356820585E1
3.926063833E0,-9.720813589E0,1.152169520E1,5.418532416E1,5.624315987E1
3.936009833E0,-1.948396687E1,1.105769174E1,5.831786955E1,6.247296552E1
3.945955833E0,-3.383550979E1,5.151809803E0,5.993530296E1,6.901900758E1
3.955901833E0,-4.606548758E1,-9.252686673E-1,5.405625974E1,7.102791342E1
3.965848833E0,-5.136442151E1,-2.473014371E0,4.332575831E1,6.724240426E1
3.975794833E0,-5.264331048E1,-8.998642695E-1,3.093300807E1,6.106536566E1
3.985740833E0,-5.050451594E1,1.551210764E0,1.830220716E1,5.374088920E1
3.995687833E0,-4.478346449E1,3.309798878E0,7.877926751E0,4.559139382E1
4.005633833E0,-3.744581696E1,4.475253038E0,7.706361989E-1,3.772016672E1
4.015579833E0,-2.994960697E1,5.025754943E0,-3.300477247E0,3.054718188E1
4.025525833E0,-2.359346604E1,4.021015014E0,-4.498060688E0,2.435267442E1
4.035472833E0,-2.013245934E1,2.183998781E0,-3.388612329E0,2.053213245E1
4.045418833E0,-1.722714394E1,5.818043894E-1,-1.541641065E-1,1.723765504E1
4.055364833E0,-1.290793671E1,8.394941068E-1,2.767143644E-2,1.293523661E1
4.065310834E0,-8.568564781E0,1.597628886E0,-7.369725358E-1,8.747333821E0
4.075257833E0,-4.987729915E0,1.881276147E0,2.050542516E0,5.711512432E0
4.085203833E0,-2.871879264E0,1.358552025E0,4.527155263E0,5.530686114E0
4.095149833E0,-1.081479372E0,1.307780067E0,3.119275542E0,3.551023267E0
4.105096833E0,2.084575211E0,2.793503770E0,4.670429881E-1,3.516709581E0
4.115042833E0,5.147477016E0,4.028957872E0,-1.591843650E0,6.727777298E0
4.124988833E0,6.813201991E0,4.033423390E0,-3.644195294E0,8.715984451E0
4.134934834E0,6.515498022E0,2.500995052E0,-4.162957928E0,8.126309706E0
4.144881833E0,4.416889932E0,3.035429978E-1,-2.156902345E0,4.924762203E0
4.154827833E0,3.140462928E0,-1.006622148E0,-7.904676155E-1,3.391258558E0
4.164773833E0,3.336751619E0,-5.211488825E-1,-1.784827495E0,3.819832026E0
4.174719833E0,4.159595194E0,1.729781806E-1,-3.785791469E0,5.627110331E0
4.184666833E0,4.346776847E0,7.578710693E-1,-5.043570825E0,6.701227065E0
4.194612833E0,3.427297508E0,7.037837398E-1,-5.033025956E0,6.129684334E0
4.204558834E0,2.278265253E0,1.359594584E-1,-3.467500623E0,4.151209235E0
4.214505833E0,1.097590498E0,-5.003737253E-1,-4.919577547E-1,1.302728367E0
4.224451833E0,5.492731858E-2,-1.141517413E0,2.261340487E0,2.533720548E0
4.234397833E0,-3.182641307E-1,-1.625868014E0,3.085539447E0,3.502183966E0
4.244343833E0,-2.219128158E-1,-1.647218537E0,2.039587172E0,2.631062530E0
4.254290833E0,7.086177061E-1,-7.996348071E-1,1.611435258E-1,1.080519372E0
4.264236833E0,1.710559085E0,7.722125351E-2,-8.976749989E-1,1.933338022E0
4.274182833E0,1.739972188E0,3.142410636E-1,-1.032163371E0,2.047342640E0
4.284129833E0,1.283232725E0,1.591717350E-1,-9.012255013E-1,1.576143798E0
4.294075833E0,8.161757762E-1,-6.985785484E-2,-2.185198045E-1,8.478053565E-1
4.304021833E0,4.284409860E-1,-4.240698999E-1,1.315584930E0,1.447121511E0
4.313967833E0,4.512207240E-2,-5.521467268E-1,2.055085802E0,2.128445363E0
4.323914833E0,-1.150366498E-1,-2.865299392E-1,1.533297819E0,1.564076417E0
4.333860833E0,1.020124063E-1,-2.325642318E-1,7.701168931E-1,8.109085534E-1
4.343806833E0,6.322428370E-1,-1.409611666E-1,-3.487864137E-2,6.487045360E-1
4.353752833E0,1.097120674E0,7.065073729E-2,-3.012310453E-1,1.139914665E0
4.363699833E0,5.906215520E-1,-2.756435931E-1,1.140534862E-1,6.616807431E-1
4.373645833E0,-1.773083179E-1,-5.684820932E-1,2.733226139E-2,5.961184299E-1
4.383591833E0,-7.697755618E-1,-6.039629978E-1,-2.871380496E-1,1.019693080E0
4.393538833E0,-1.541970555E0,-1.216919013E0,-1.415681259E-1,1.969417836E0
4.403484833E0,-2.190489190E0,-1.815593204E0,2.816545308E-1,2.859012216E0
4.413430833E0,-2.291057791E0,-1.937240433E0,1.032353990E0,3.172948323E0
4.423376833E0,-2.158132745E0,-1.843216621E0,1.475501601E0,3.198763735E0
4.433323833E0,-1.800642166E0,-1.369243074E0,1.094756645E0,2.513091904E0
4.443269833E0,-1.004851319E0,-6.773899931E-1,3.246783435E-1,1.254591329E0
4.453215833E0,-7.484892849E-1,-4.294639564E-1,-9.242810726E-2,8.678815901E-1
4.463161833E0,-8.056434059E-1,-6.251842976E-1,-1.511224580E-1,1.030899947E0
4.473108833E0,-1.001373541E0,-7.951266038E-1,-2.260440016E-1,1.298488035E0
4.483054833E0,-6.470996618E-1,-5.609076101E-1,-1.636693768E-1,8.718617919E-1
4.493000833E0,-2.701352190E-2,-3.023782325E-1,7.496148739E-3,3.036750205E-1
4.502947833E0,3.362616047E-1,6.504091859E-2,-7.445140919E-2,3.504927962E-1
4.512893833E0,2.256840324E-1,3.649878788E-1,-3.373317182E-1,5.458407481E-1
4.522839833E0,-2.739670319E-1,4.216748804E-1,-4.225560558E-1,6.568266587E-1
4.532785583E0,-7.443651706E-1,1.992912358E-1,-8.222354650E-3,7.706257918E-1
4.542732583E0,-7.402915616E-1,4.497912169E-2,3.058760552E-1,8.022561179E-1
4.552678583E0,-7.021472503E-1,1.577941310E-1,4.903112884E-1,8.708127861E-1
4.562624583E0,-1.120397197E0,3.671285444E-1,1.008181601E0,1.551290878E0
4.572571583E0,-5.886095982E-1,1.240457565E-1,9.959831393E-1,1.163542446E0
4.582517583E0,9.227934130E-2,6.044910014E-2,-2.920216441E-2,1.141154545E-1
4.592463583E0,-5.190523085E-2,1.843989623E-1,-5.687972581E-1,6.001895127E-1
4.602409583E0,-2.639656071E-1,-7.395909190E-2,-4.389843929E-1,5.175471826E-1
4.612356583E0,-3.711388573E-1,-4.645636225E-1,-1.281136461E-1,6.082569499E-1
4.622302583E0,-9.773699901E-1,-5.354453248E-1,3.064677751E-1,1.155801147E0
4.632248583E0,-1.360056367E0,-6.263923323E-1,4.787267482E-1,1.572036888E0
4.642194583E0,-1.232867879E0,-6.514751333E-1,2.499029803E-1,1.416627882E0
4.652141583E0,-7.666103178E-1,-4.372033310E-1,3.548803818E-1,9.511983060E-1
4.662087583E0,-7.271715792E-1,-4.105546457E-1,4.299820197E-1,9.392646910E-1
4.672033583E0,-9.122171704E-1,-4.639730537E-1,8.080619057E-2,1.026616190E0
4.681980583E0,-7.342396934E-1,-3.289222527E-1,-7.167914557E-1,1.077537826E0
4.691926583E0,-6.736843202E-1,-2.447825736E-1,-1.064665704E0,1.283464893E0
4.701872583E0,-6.158336496E-1,-2.927045989E-1,-6.599272835E-1,9.489104730E-1
4.711818583E0,-5.914226937E-1,-2.520722973E-1,-3.143159080E-1,7.156226210E-1
4.721765583E0,-1.754613835E-1,4.916806698E-2,-6.449876475E-1,6.702337364E-1
4.731711583E0,2.056677707E-2,3.001656461E-1,-1.036328927E0,1.079120036E0
4.741657584E0,-3.868921334E-1,2.130555815E-1,-5.403645873E-1,6.979055028E-1
4.751604583E0,-8.475477692E-1,-1.541197407E-1,5.764957023E-1,1.036550727E0
4.761550583E0,-6.759750400E-1,-3.850566924E-1,1.219423960E0,1.446445888E0
4.771496583E0,-6.284621005E-1,-2.569862974E-1,9.693958497E-1,1.183526460E0
4.781442583E0,-8.896375624E-1,-2.235501641E-1,3.291806996E-1,9.745714962E-1
4.791389583E0,-8.770401017E-1,-3.010023826E-1,-1.122548461E-1,9.340251200E-1
4.801335583E0,-6.630266002E-1,-1.951180780E-1,-9.748244047E-2,6.979814920E-1
4.811281584E0,-5.216091315E-1,-1.543197155E-2,2.130012023E-1,5.636344063E-1
4.821227583E0,-4.766428371E-1,9.213808537E-2,3.783768332E-1,6.155053605E-1
4.831174583E0,-6.232373209E-1,3.909799218E-1,1.533139944E-1,7.515286011E-1
4.841120583E0,-9.566753782E-1,5.381046385E-1,-2.410221150E-3,1.097629350E0
4.851066583E0,-8.880018038E-1,4.902054173E-1,2.052863860E-1,1.034886977E0
4.861013583E0,-4.709767755E-1,6.196054691E-1,5.087931311E-1,9.298389703E-1
4.870959583E0,-4.065363294E-1,8.020228100E-1,5.472537768E-1,1.052615348E0
4.880905584E0,-4.061907955E-1,8.494758886E-1,3.632992029E-1,1.009250493E0
4.890851583E0,-3.694443708E-1,9.840021944E-1,1.134254587E-1,1.057173021E0
4.900798583E0,-2.242570925E-1,1.145071351E0,-1.246579599E-1,1.173464635E0
4.910744583E0,-8.027050339E-2,1.137309172E0,-1.724168479E-1,1.153101503E0
4.920690583E0,-3.370482744E-1,8.822670740E-1,2.596046805E-2,9.448125079E-1
4.930637583E0,-7.005475983E-1,5.010835773E-1,5.007280666E-1,9.962832356E-1
4.940583583E0,-6.548594286E-1,2.898669451E-1,1.034262521E0,1.257999475E0
4.950529583E0,-3.530701935E-1,1.841615653E-1,1.381825697E0,1.438059909E0
4.960475583E0,-1.899828339E-1,9.874134600E-2,1.389821180E0,1.406216997E0
4.970422583E0,-2.454734221E-2,8.087868690E-2,1.310259286E0,1.312982609E0
4.980368583E0,5.700381104E-2,2.313743234E-3,9.030357993E-1,9.048361413E-1
4.990314583E0,-7.367199361E-2,-5.552165151E-2,1.019275029E-1,1.374752061E-1
5.000260583E0,-3.035103265E-2,2.470448613E-2,-6.124514008E-1,6.137004278E-1
5.010207583E0,-3.398507718E-2,-5.888146162E-2,-6.725058138E-1,6.759334891E-1
5.020153583E0,6.109532710E-2,-2.159335810E-1,-7.156056404E-2,2.355437639E-1
5.030099583E0,-9.242361221E-2,-3.229323649E-1,3.361377168E-1,4.752010112E-1
5.040046583E0,-1.159358876E-1,-3.721115416E-1,1.675683367E-1,4.242490742E-1
5.049992583E0,-1.271898409E-1,-2.728796142E-1,-2.972689354E-1,4.230949769E-1
5.059938583E0,-5.199274722E-2,-1.264419454E-1,-5.843754101E-1,6.001545061E-1
5.069884583E0,-8.085580967E-2,-1.381726295E-1,-5.821955681E-1,6.038054463E-1
5.079831583E0,-1.439517982E-1,-2.337687582E-1,-4.283179021E-1,5.087496219E-1
5.089777583E0,8.889807008E-2,-8.640138209E-2,-1.118104486E-1,1.669420322E-1
5.099723583E0,5.993147172E-1,2.247114211E-1,4.183331966E-1,7.646411030E-1
5.109670583E0,6.285037619E-1,2.939792919E-1,3.144702744E-1,7.617954819E-1
5.119616583E0,4.525047269E-1,3.263155639E-1,6.132443746E-2,5.612513356E-1
5.129562583E0,1.457072785E-1,2.314924371E-1,2.457105267E-1,3.676860378E-1
5.139508583E0,4.620360173E-2,1.021040797E-2,2.043075621E-1,2.097155340E-1
5.149455583E0,-6.796554968E-2,-4.972004414E-2,9.835717480E-2,1.294817847E-1
5.159401583E0,-4.658487674E-1,-1.512347245E-1,-2.301218498E-1,5.411497775E-1
5.169347583E0,-5.200072867E-1,-2.054799289E-1,-4.240260458E-1,7.017319053E-1
5.179294583E0,-3.856415236E-1,-1.396379417E-1,-2.146442699E-1,4.629150052E-1
5.189240583E0,-3.944487094E-1,-3.873371065E-2,2.164943290E-1,4.516191749E-1
5.199186583E0,-1.659459171E-1,5.941940546E-2,5.763881135E-1,6.027370658E-1
5.209132583E0,1.083801156E-1,2.269374561E-1,6.714427900E-1,7.169953129E-1
5.219079583E0,6.304358281E-3,1.859829730E-1,4.000255644E-1,4.411914135E-1
5.229025583E0,-2.940430266E-1,5.638177693E-2,2.061611295E-2,3.001086976E-1
5.238971583E0,-5.758940969E-1,-7.661957502E-2,-1.940936458E-1,6.125331937E-1
5.248917583E0,-5.246551288E-1,-1.477603090E-1,1.068988879E-2,5.451700531E-1
5.258864583E0,-2.919002778E-1,-8.933025241E-2,2.780538154E-1,4.129159605E-1
5.268810584E0,-3.537766102E-1,1.492326379E-2,2.311380959E-1,4.228538910E-1
5.278756583E0,-1.337414267E-1,1.711860090E-1,1.727536476E-1,2.775522323E-1
5.288703583E0,2.145345981E-1,3.836235398E-1,7.262944420E-2,4.454965210E-1
5.298649583E0,6.062303288E-1,6.376932460E-1,1.717420793E-1,8.964726595E-1
5.308595583E0,8.640611833E-1,6.363799614E-1,4.003752279E-1,1.145373959E0
5.318541583E0,9.522124909E-2,3.433976197E-1,-7.221427361E-2,3.635985600E-1
5.328488583E0,-8.911313067E-1,1.460166693E-2,-3.431333256E-1,9.550228760E-1
5.338434584E0,-1.180453072E0,-2.294348019E-1,1.305893755E-1,1.209612900E0