"Time (s)","Linear Acceleration x (m/s^2)","Linear Acceleration y (m/s^2)","Linear Acceleration z (m/s^2)","Absolute acceleration (m/s^2)"
4.988125060E-3,-4.489944241E-1,-7.875380874E-2,-1.946000147E-1,4.956483844E-1
1.493412489E-2,9.381930605E-3,-7.348137438E-2,-3.216249275E-1,3.300456438E-1
2.488012495E-2,2.001988699E-1,1.061333960E-1,-2.184601629E-1,3.147518515E-1
3.482612502E-2,7.751449138E-2,1.133757573E-1,-4.654619375E-2,1.450141610E-1
4.477312509E-2,3.444700722E-2,6.200738311E-2,3.500728011E-2,7.910133707E-2
5.471912492E-2,2.393620950E-1,1.619813222E-1,9.918747028E-2,3.055655667E-1
6.466512498E-2,4.477023721E-1,1.915185320E-1,1.646996745E-1,5.140454697E-1
7.461112505E-2,4.185835671E-1,1.389011925E-1,1.881236204E-1,4.794749633E-1
8.455812489E-2,2.784944396E-1,1.008948755E-1,2.147834337E-1,3.658836594E-1
9.450412495E-2,2.320030818E-1,6.029064059E-2,2.575254107E-1,3.518234336E-1
1.044501250E-1,2.394579894E-1,2.037286878E-2,2.623435163E-1,3.557798519E-1
1.143971251E-1,2.490337917E-1,3.621414542E-2,2.706290027E-1,3.695529067E-1
1.243431249E-1,3.133624829E-1,-5.579296231E-2,2.476272440E-1,4.032718095E-1
1.342891250E-1,1.247498343E-1,-1.618480057E-1,2.663558575E-1,3.357122889E-1
1.442351250E-1,-1.408820830E-1,-1.612568521E-1,3.396589100E-1,4.015217414E-1
1.541821251E-1,-2.277409001E-1,-1.243539047E-1,2.918602610E-1,3.905281336E-1
1.641281249E-1,-1.527623096E-1,-1.404606450E-1,1.374469900E-1,2.489120147E-1
1.740741250E-1,-1.307942108E-1,-1.022642934E-1,-8.987286489E-2,1.887915335E-1
1.840201251E-1,-2.151149708E-1,-1.438379967E-1,-2.263971917E-1,3.438306391E-1
1.939671249E-1,-4.026234093E-1,-2.122322935E-1,-1.783108413E-1,4.888178722E-1
2.039131250E-1,-4.077058822E-1,-1.827471238E-1,6.128583670E-2,4.509728943E-1
2.138591250E-1,-3.403450808E-1,-1.864519197E-1,3.420235240E-1,5.172805654E-1
2.238051251E-1,-2.305806735E-1,-1.620421332E-1,5.020243943E-1,5.757200642E-1
2.337521249E-1,-1.633540291E-2,-5.959482193E-2,5.098432910E-1,5.135743078E-1
2.436981250E-1,1.782408575E-1,4.434411407E-2,3.933690941E-1,4.341375910E-1
2.536441251E-1,2.126471169E-1,1.053329122E-1,2.919093776E-1,3.761979578E-1
2.635901249E-1,1.932407198E-1,1.951835668E-1,1.874044311E-1,3.325041674E-1
2.735371250E-1,1.563008253E-1,2.226871151E-1,1.332627134E-1,3.029495832E-1
2.834831250E-1,1.774153402E-1,1.545787472E-1,9.075111668E-2,2.522034044E-1
2.934291251E-1,2.532810630E-1,1.866419542E-1,3.724207680E-2,3.168177524E-1
3.033761249E-1,2.192239554E-1,1.187347305E-1,1.060392467E-1,2.709269287E-1
3.133221250E-1,1.088023576E-1,-5.781726837E-3,2.278309107E-1,2.525436700E-1
3.232681251E-1,-2.703354176E-2,-7.935373306E-2,2.239998150E-1,2.391730429E-1
3.332141249E-1,-9.021405905E-2,-9.252283216E-2,1.038757678E-1,1.657987517E-1
3.431611250E-1,-4.547489248E-2,-6.464096904E-3,-5.241093278E-2,6.968971423E-2
3.531071250E-1,7.702891666E-2,1.279686534E-1,-1.225985706E-1,1.932351929E-1
3.630531251E-1,2.826861258E-1,1.638465840E-1,-1.740646116E-1,3.702102616E-1
3.729991249E-1,4.642294541E-1,1.956647927E-1,-1.978545932E-1,5.412394453E-1
3.829461250E-1,5.074972054E-1,2.108353937E-1,-8.926827192E-2,5.567529085E-1
3.928921251E-1,3.003627338E-1,9.177789688E-2,1.877307240E-1,3.659013241E-1
4.028381249E-1,5.738490332E-2,-4.561412930E-3,3.615719354E-1,3.661257955E-1
4.127841250E-1,-1.044073711E-1,-1.101352304E-1,3.545856822E-1,3.856963496E-1
4.227311250E-1,-1.921335129E-1,-1.399244553E-1,3.015409112E-1,3.839545040E-1
4.326771251E-1,-2.090704847E-1,-5.450599015E-2,2.388388789E-1,3.220642492E-1
4.426231249E-1,-1.803379979E-2,5.083101511E-2,1.426428076E-1,1.524991167E-1
4.525701250E-1,5.367473535E-2,-2.015710652E-2,5.887676558E-2,8.218126114E-2
4.625161251E-1,1.185468156E-2,-4.035163522E-3,1.116116524E-1,1.123119627E-1
4.724621249E-1,-3.025027782E-2,6.114550352E-2,1.126395746E-1,1.316872267E-1
4.824081250E-1,-9.038706355E-2,2.481558323E-3,2.258194685E-2,9.319830316E-2
4.923551250E-1,-1.311333858E-1,-1.153737509E-1,-3.053765933E-2,1.773121990E-1
5.023011251E-1,-1.454294261E-1,-1.117426300E-1,-1.329656839E-2,1.838829303E-1
5.122471249E-1,-4.429393765E-2,-3.608316779E-2,9.865654310E-2,1.140046552E-1
5.221931250E-1,1.023002904E-1,5.343478024E-2,1.802158459E-1,2.140055519E-1
5.321401251E-1,1.429836820E-1,7.343342721E-2,5.258050203E-2,1.691198118E-1
5.420861251E-1,2.405708972E-2,4.705137491E-2,-7.619855722E-2,9.272969088E-2
5.520321249E-1,-1.048942979E-1,-6.221437454E-4,-1.556809473E-1,1.877225563E-1
5.619781250E-1,-1.440924237E-1,-2.995294690E-2,-2.125451013E-1,2.585250968E-1
5.719251251E-1,-1.191780591E-1,-2.580317795E-2,-1.744633917E-1,2.128536793E-1
5.818711249E-1,-8.681830684E-2,-3.171822131E-2,-1.425434232E-2,9.352352773E-2
5.918171250E-1,-1.090832981E-1,-2.819585860E-2,1.161081612E-1,1.617877543E-1
6.017631250E-1,-5.136203365E-2,8.270828068E-2,2.214399040E-1,2.418973941E-1
6.117101251E-1,8.933489364E-2,9.982074201E-2,3.237158918E-1,3.503382400E-1
6.216561249E-1,1.549657780E-1,2.853792071E-2,3.505768311E-1,3.843604035E-1
6.316021250E-1,5.879357066E-2,5.909956276E-2,2.650472871E-1,2.778479921E-1
6.415491251E-1,-1.295052286E-2,8.189785659E-2,1.393917557E-1,1.621882749E-1
6.514951249E-1,-8.332057552E-2,-1.732529998E-2,6.807682950E-2,1.089813702E-1
6.614411250E-1,-1.710210079E-1,-1.152380955E-1,7.645819187E-2,2.199405804E-1
6.713871250E-1,-2.059232026E-1,-1.419183558E-1,1.662234589E-1,3.002922299E-1
6.813341251E-1,-1.531005162E-1,-2.052665055E-1,2.032749438E-1,3.269477162E-1
6.912801249E-1,-2.097895461E-1,-2.937231839E-1,1.739640029E-1,4.006849594E-1
7.012261250E-1,-2.982742180E-1,-2.835145301E-1,1.197170627E-1,4.285792494E-1
7.111721251E-1,-3.039885009E-1,-1.959045285E-1,4.778110743E-2,3.647884691E-1
7.211191249E-1,-2.828944694E-1,-1.413611162E-1,-4.789101681E-2,3.198527715E-1
7.310651250E-1,-3.974627298E-1,-1.551207840E-1,-1.219203118E-1,4.437382581E-1
7.410111250E-1,-5.226492050E-1,-1.814028490E-1,-1.145095325E-1,5.649616076E-1
7.509571251E-1,-5.019338355E-1,-2.755816126E-1,-1.516534034E-1,5.923525599E-1
7.609041249E-1,-5.817038538E-1,-3.936047369E-1,-1.280867855E-1,7.139399744E-1
7.708501250E-1,-7.068697540E-1,-3.971042955E-1,3.171511497E-3,8.107815545E-1
7.807961251E-1,-7.703154791E-1,-2.236302710E-1,3.379454931E-2,8.028315558E-1
7.907431249E-1,-7.758272839E-1,-9.052483857E-2,-1.128617871E-1,7.892024479E-1
8.006891250E-1,-8.944623193E-1,1.728436947E-3,-3.787475467E-1,9.713472769E-1
8.106351250E-1,-1.114502546E0,1.370622432E-1,-6.837371457E-1,1.314685692E0
8.205811251E-1,-1.211861903E0,1.985790449E-1,-7.939992607E-1,1.462353491E0
8.305281249E-1,-1.216711145E0,1.479456657E-1,-7.189175034E-1,1.420956124E0
8.404741250E-1,-1.406057290E0,4.560068071E-2,-6.226641476E-1,1.538436598E0
8.504201251E-1,-1.704787591E0,-9.202932715E-3,-5.456142175E-1,1.789994497E0
8.603661249E-1,-1.765469849E0,6.443105400E-2,-4.401631916E-1,1.820653394E0
8.703131250E-1,-1.707446904E0,1.226915413E-1,-3.883054054E-1,1.755337356E0
8.802591250E-1,-1.609889327E0,1.373060721E-1,-4.906094599E-1,1.688577581E0
8.902051251E-1,-1.519563586E0,1.789405864E-1,-6.171268344E-1,1.649829917E0
9.001511249E-1,-1.543552958E0,2.050741321E-1,-6.724508500E-1,1.696113581E0
9.100981250E-1,-1.759924934E0,1.261601096E-1,-6.732203436E-1,1.888512054E0
9.200441251E-1,-2.003681029E0,3.963769019E-2,-6.432568717E-1,2.104777474E0
9.299901249E-1,-2.226218309E0,-6.778326273E-2,-6.422944200E-1,2.318013083E0
9.399371250E-1,-2.290227194E0,-1.535817969E-1,-6.879448020E-1,2.396246235E0
9.498831250E-1,-2.031888874E0,-1.417137033E-1,-6.491543734E-1,2.137769064E0
9.598291251E-1,-1.497912516E0,-5.541874051E-2,-4.966110420E-1,1.579061642E0
9.697751249E-1,-1.023451385E0,3.818348765E-2,-3.621613348E-1,1.086310982E0
9.797221250E-1,-5.522949538E-1,2.160996419E-1,-3.570017151E-1,6.922275607E-1
9.896681251E-1,-2.024652141E-1,2.568822169E-1,-3.417533461E-1,4.730496654E-1
9.996141251E-1,-6.533427523E-2,1.158128768E-1,-2.141472383E-1,2.520718740E-1
1.009560125E0,1.203648611E-1,3.204215705E-2,-1.069549298E-1,1.641759929E-1
1.019507125E0,5.261585942E-1,-8.552137613E-3,-7.604769906E-2,5.316947036E-1
1.029453125E0,1.084435578E0,-9.600134075E-2,-1.475952348E-2,1.088776664E0
1.039399125E0,2.033332698E0,-2.367186785E-2,1.348894362E-1,2.037939493E0
1.049345125E0,3.063292546E0,1.568164766E-1,1.666327822E-1,3.071826673E0
1.059292125E0,3.865635491E0,1.838785601E-1,-1.575695980E-1,3.873212781E0
1.069238125E0,4.630901826E0,1.071069574E-1,-6.408665299E-1,4.676262774E0
1.079184125E0,5.539714674E0,1.378603882E-1,-8.502190697E-1,5.606274755E0
1.089130125E0,6.691586922E0,3.436525583E-1,-6.345024204E-1,6.730380816E0
1.099077125E0,8.073929513E0,6.565622109E-1,-1.916775580E-1,8.102848388E0
1.109023125E0,9.504562504E0,9.706383830E-1,5.969387376E-1,9.572626762E0
1.118969125E0,1.081355645E1,8.575286740E-1,1.365472205E0,1.093310902E1
1.128915125E0,1.202092112E1,7.262177521E-1,1.389721777E0,1.212275807E1
1.138862125E0,1.351586120E1,6.945813918E-1,1.233735605E0,1.358981423E1
1.148808125E0,1.552740980E1,4.992773724E-1,1.533376172E0,1.561092488E1
1.158754125E0,1.774336537E1,3.719466501E-1,2.263272407E0,1.789099665E1
1.168701125E0,2.053672179E1,5.794140476E-1,2.885445389E0,2.074652881E1
1.178647125E0,2.399218066E1,4.922443414E-1,3.294689673E0,2.422234541E1
1.188593125E0,2.679855181E1,1.682378429E-1,3.469920201E0,2.702278722E1
1.198539125E0,2.961761844E1,8.533865064E-1,3.213222756E0,2.980363050E1
1.208486125E0,3.352491973E1,2.286133851E0,2.903343716E0,3.372797141E1
1.218432125E0,3.673078669E1,2.658897357E0,3.938065828E0,3.703685716E1
1.228378125E0,3.765949995E1,2.583715028E0,7.556009463E0,3.849684141E1
1.238324125E0,3.578062116E1,2.346185340E0,1.183895109E1,3.776133206E1
1.248271125E0,3.336511532E1,1.839712969E0,1.693464282E1,3.746194859E1
1.258217125E0,3.119951013E1,1.298274833E0,2.227578664E1,3.835760186E1
1.268163125E0,2.839966681E1,9.344727695E-1,2.479720192E1,3.771359884E1
1.278109125E0,2.676494202E1,1.281168219E0,2.551564463E1,3.700069775E1
1.288056125E0,2.555781475E1,1.351903741E0,2.881892153E1,3.854296014E1
1.298002125E0,2.206801168E1,1.815071633E0,3.308216622E1,3.980855870E1
1.307948125E0,1.595200888E1,3.183949256E0,3.605329320E1,3.955305387E1
1.317895125E0,1.051745462E1,6.533913243E0,3.764740323E1,3.963124833E1
1.327841125E0,6.391370405E0,1.281278614E1,4.026969000E1,4.273950207E1
1.337787125E0,3.465250323E0,1.718862248E1,4.731256302E1,5.045726233E1
1.347733250E0,-1.356635015E0,1.678505467E1,6.038439719E1,6.268854714E1
1.357680250E0,-1.238079034E1,8.694587481E0,7.561063095E1,7.710932066E1
1.367626250E0,-2.623258578E1,-9.965684456E-1,7.807228067E1,8.236760719E1
1.377572250E0,-3.642909609E1,-2.902220466E0,6.243787384E1,7.234631998E1
1.387518250E0,-3.741255332E1,-2.203225011E-1,4.187937701E1,5.615718927E1
1.397465250E0,-3.244746967E1,2.070972102E0,2.551136915E1,4.132743846E1
1.407411250E0,-2.703824555E1,3.185854864E0,1.358410990E1,3.042604864E1
1.417357250E0,-2.365612247E1,2.894233169E0,4.828459947E0,2.431671732E1
1.427303250E0,-2.225993834E1,1.669451990E0,-1.414579314E0,2.236722959E1
1.437250250E0,-2.100658533E1,-1.287603664E-1,-3.866804641E0,2.135990133E1
1.447196250E0,-1.898044792E1,-1.769499604E0,-3.728602191E0,1.942398019E1
1.457142250E0,-1.708036596E1,-2.381875575E0,-3.085817775E0,1.751954634E1
1.467088250E0,-1.575250773E1,-2.639543658E0,-1.907485561E0,1.608562065E1
1.477035250E0,-1.535703130E1,-3.281410646E0,1.092114727E0,1.574162573E1
1.486981250E0,-1.476295068E1,-3.882869866E0,3.845208535E0,1.574188743E1
1.496927250E0,-1.344094901E1,-3.853028017E0,3.864830621E0,1.450661404E1
1.506874250E0,-1.156148316E1,-2.961039362E0,1.816721863E0,1.207212182E1
1.516820250E0,-8.906206402E0,-1.685306715E0,8.687661454E-2,9.064674221E0
1.526766250E0,-6.708930348E0,-9.211048651E-1,-9.381740570E-1,6.836545264E0
1.536712250E0,-5.285485924E0,-6.340556931E-1,-2.009306635E0,5.689964958E0
1.546659250E0,-4.186751126E0,-1.950642836E-1,-3.044165426E0,5.180142682E0
1.556605250E0,-3.356723953E0,2.087222099E-2,-3.238587978E0,4.664384572E0
1.566551250E0,-3.313585243E0,-4.522903168E-1,-1.843479745E0,3.818747342E0
1.576497250E0,-3.775801501E0,-1.321604639E0,1.040953490E-1,4.001768563E0
1.586444250E0,-4.085756555E0,-1.823334918E0,1.130888783E0,4.614852792E0
1.596390250E0,-3.749006635E0,-1.670821407E0,4.968357213E-1,4.134433535E0
1.606336250E0,-2.628785073E0,-1.205905198E0,-6.684677267E-1,2.968428441E0
1.616282250E0,-1.135037821E0,-3.394507492E-1,-1.567886438E0,1.965147717E0
1.626229250E0,-5.054062776E-2,5.072091204E-1,-1.894686152E0,1.962052767E0
1.636175250E0,4.759139817E-1,1.068686834E0,-1.900941503E0,2.232076223E0
1.646121250E0,7.882784180E-1,1.327047812E0,-9.947425063E-1,1.836287399E0
1.656068250E0,4.079844289E-1,1.000869657E0,9.344318390E-1,1.428759681E0
1.666014250E0,-5.320395409E-1,3.036447394E-1,2.536131556E0,2.609066782E0
1.675960250E0,-1.078263623E0,-6.886909068E-2,3.087630411E0,3.271216433E0
1.685906250E0,-5.908763444E-1,3.412306416E-1,2.731860083E0,2.815782790E0
1.695853250E0,2.821101020E-1,1.150854832E0,2.104543891E0,2.415193148E0
1.705799250E0,6.005030541E-1,1.599927426E0,1.421548318E0,2.222874560E0
1.715745250E0,6.102881502E-1,1.974098942E0,6.222220981E-1,2.157933872E0
1.725691250E0,3.223521750E-1,2.073289939E0,1.254742312E-1,2.101948115E0
1.735638250E0,-5.920487843E-1,1.403753341E0,2.200821805E-1,1.539311980E0
1.745584250E0,-1.406986851E0,7.832696199E-1,1.100910255E0,1.950673393E0
1.755530250E0,-1.577454822E0,3.933416122E-1,1.906515069E0,2.505570005E0
1.765476250E0,-1.625735866E0,1.912138921E-1,2.287828374E0,2.813136777E0
1.775423250E0,-1.325634540E0,4.017996097E-1,1.959191465E0,2.399412648E0
1.785369250E0,-9.512509163E-1,7.303564113E-1,9.534119010E-1,1.532087806E0
1.795315250E0,-6.446621038E-1,8.602330112E-1,-1.663638103E-1,1.087780759E0
1.805261250E0,-4.378282522E-1,6.503103679E-1,-9.806517398E-1,1.255497904E0
1.815208250E0,-3.315865365E-1,3.194117564E-1,-1.678548503E0,1.740545483E0
1.825154250E0,-1.113686494E0,-3.435139793E-1,-1.936856271E0,2.260467137E0
1.835100250E0,-1.608964298E0,-1.040229605E0,-1.555769838E0,2.468048527E0
1.845047250E0,-2.024516266E0,-1.354971775E0,-1.187219836E0,2.710001026E0
1.854993250E0,-2.228219226E0,-1.449616562E0,-5.979585286E-1,2.724684110E0
1.864939250E0,-1.806998967E0,-1.336082929E0,-2.163586736E-2,2.247405387E0
1.874885250E0,-8.029916205E-1,-6.500215155E-1,-2.201184332E-1,1.056302815E0
1.884832250E0,1.718977614E-1,7.178802073E-2,-7.897775710E-1,8.114499195E-1
1.894778250E0,6.714380392E-1,4.643572158E-1,-1.112905233E0,1.380222707E0
1.904724250E0,1.087278495E0,7.374695492E-1,-1.334724036E0,1.872838518E0
1.914670250E0,1.108436718E0,7.959621710E-1,-1.433981692E0,1.979517928E0
1.924617250E0,7.792431542E-1,4.192453623E-1,-1.479006422E0,1.723498350E0
1.934563250E0,7.364505988E-2,-2.047367477E-1,-1.057219859E0,1.079376932E0
1.944509250E0,-4.352365469E-1,-5.661566556E-1,-5.349266402E-1,8.922503689E-1
1.954455250E0,-6.820205493E-1,-8.426030713E-1,-2.864831614E-1,1.121251340E0
1.964402250E0,-6.289591138E-1,-8.903280455E-1,-3.393968817E-1,1.141693408E0
1.974348250E0,-5.139356842E-1,-8.166589755E-1,-2.902733266E-1,1.007631070E0
1.984294250E0,-3.089754997E-1,-8.148539400E-1,-3.004708707E-1,9.218110149E-1
1.994240250E0,-5.645704156E-1,-9.237396204E-1,-7.804910231E-1,1.334616378E0
2.004187250E0,-1.175244957E0,-1.161245334E0,-1.012184677E0,1.937578194E0
2.014133250E0,-1.676589832E0,-1.509182732E0,-8.689406848E-1,2.417363005E0
2.024079250E0,-1.599141268E0,-1.434314983E0,-8.131571511E-1,2.296897215E0
2.034026250E0,-1.116333309E0,-9.418116099E-1,-1.204795469E0,1.893341303E0
2.043972250E0,-9.071250495E-1,-6.966969144E-1,-1.860479940E0,2.183952393E0
2.053918250E0,-9.126571003E-1,-6.985235846E-1,-1.960165612E0,2.272251616E0
2.063864250E0,-9.734253122E-1,-7.592972052E-1,-1.421817144E0,1.882990461E0
2.073811250E0,-7.684048283E-1,-6.616247302E-1,-1.045537122E0,1.456482454E0
2.083757250E0,-3.985158864E-1,-3.376445442E-1,-1.000904229E0,1.128994254E0
2.093703250E0,4.998441137E-2,2.140782595E-2,-1.026881069E0,1.028319730E0
2.103649250E0,1.511071547E-1,2.874216396E-1,-1.143203239E0,1.188426782E0
2.113596250E0,-4.392501488E-3,2.940781099E-1,-1.180908351E0,1.216982236E0
2.123542250E0,-3.058475865E-1,6.416675985E-2,-1.287620037E0,1.325000180E0
2.133488250E0,-5.628921916E-1,-8.255099058E-2,-1.458292075E0,1.565336406E0
2.143434250E0,-4.466959567E-1,-9.052893162E-2,-1.406246009E0,1.478262697E0
2.153381250E0,-1.142681338E-1,7.841993272E-2,-1.343075030E0,1.350206439E0
2.163327250E0,2.792209562E-1,2.274584430E-1,-7.508585036E-1,8.327605767E-1
2.173273250E0,6.346924549E-1,1.990672874E-1,6.826752182E-2,6.686723800E-1
2.183219250E0,5.836732326E-1,-4.584217072E-2,1.532158343E-1,6.051867802E-1
2.193166250E0,4.556051034E-1,-2.928256363E-1,-1.169805292E-1,5.540824015E-1
2.203112250E0,4.383947377E-1,-4.935927093E-1,-2.872784559E-1,7.199670964E-1
2.213058250E0,5.549707858E-1,-6.558231229E-1,-3.455131058E-1,9.259999179E-1
2.223005250E0,9.266573080E-1,-4.465465969E-1,-5.833544862E-1,1.182539676E0
2.232951250E0,1.411706724E0,-9.921263158E-2,-7.341554204E-1,1.594284542E0
2.242897250E0,1.741672412E0,-1.505400753E-1,-3.540407217E-1,1.783656339E0
2.252843250E0,1.759012768E0,-3.445109296E-1,3.033114481E-1,1.817914061E0
2.262790250E0,1.794376290E0,-4.351012570E-1,8.478239771E-1,2.031724605E0
2.272736250E0,1.548714442E0,-7.387074047E-1,9.106336713E-1,1.942539249E0
2.282682250E0,1.266416717E0,-8.454752237E-1,-8.806253951E-2,1.525252329E0
2.292628250E0,1.411210587E0,-4.204457957E-1,-1.587457069E0,2.165250548E0
2.302575250E0,1.488796999E0,2.767428696E-2,-2.271727481E0,2.716252588E0
2.312521250E0,1.256491361E0,-6.999818802E-2,-2.059946008E0,2.413927886E0
2.322467250E0,1.221770302E0,-7.559134215E-1,-1.000985944E0,1.751028450E0
2.332413250E0,1.615330161E0,-1.437655497E0,5.218956450E-1,2.224526899E0
2.342360250E0,1.907137067E0,-1.570114228E0,1.649822302E0,2.970579759E0
2.352305958E0,2.072922295E0,-1.438526148E0,2.001926426E0,3.220880894E0
2.362251958E0,2.756514576E0,-9.708015203E-1,2.084694933E0,3.589816313E0
2.372197958E0,3.610394587E0,-3.463563108E-1,1.915317467E0,4.101628063E0
2.382144958E0,4.188252691E0,1.746826440E-1,1.359608617E0,4.406870797E0
2.392090958E0,5.665711062E0,1.114989181E0,5.363241978E-1,5.799234980E0
2.402036958E0,7.940451613E0,2.289562073E0,-4.844648402E-2,8.264091805E0
2.411982958E0,9.140199693E0,2.706828738E0,-5.229410907E-1,9.546917808E0
2.421929958E0,9.480966066E0,2.268292242E0,-1.193627032E-1,9.749262264E0
2.431875958E0,9.603226082E0,8.704416651E-1,1.096840593E0,9.704776101E0
2.441821958E0,1.046601900E1,-6.204246640E-2,2.441742293E0,1.074725586E1
2.451767958E0,1.290787006E1,3.991274321E-1,3.773478402E0,1.345405334E1
2.461714958E0,1.639114179E1,1.315684918E0,5.049741976E0,1.720175718E1
2.471660958E0,1.981255115E1,1.967325527E0,5.748205919E0,2.072316154E1
2.481606958E0,2.321656154E1,1.773455830E0,6.111540205E0,2.407290591E1
2.491553958E0,2.619874443E1,6.752879190E-1,6.074284086E0,2.690217743E1
2.501499958E0,2.784317326E1,-1.039256628E0,5.137817416E0,2.833230523E1
2.511445958E0,2.973199232E1,-2.750719693E0,3.791086707E0,3.009867380E1
2.521391958E0,3.298104213E1,-4.813782266E0,1.997984233E0,3.339032166E1
2.531338958E0,3.661499077E1,-5.972461842E0,-1.807230370E0,3.714288533E1
2.541284958E0,4.086430037E1,-6.214281632E0,-3.355248116E0,4.147006187E1
2.551230958E0,4.543098983E1,-7.737065572E0,1.672841620E0,4.611545749E1
2.561176958E0,4.668950711E1,-1.023756712E1,9.809435159E0,4.879490622E1
2.571123958E0,4.472959994E1,-1.362975911E1,1.850827006E1,5.028979524E1
2.581069958E0,4.196823130E1,-1.602784492E1,2.876676904E1,5.334558325E1
2.591015958E0,3.968523039E1,-1.594904902E1,3.867664182E1,5.766430697E1
2.600961958E0,3.909907976E1,-1.420029533E1,4.308770179E1,5.989103832E1
2.610908958E0,3.796985378E1,-1.148592778E1,4.570646853E1,6.052038995E1
2.620854958E0,3.396576938E1,-7.821170753E0,5.205689557E1,6.264794153E1
2.630800958E0,2.688364751E1,-3.324379495E0,6.127373530E1,6.699442245E1
2.640747958E0,1.886377492E1,3.699609942E0,7.083085024E1,7.339304098E1
2.650693958E0,9.780739363E0,1.271611179E1,8.126086092E1,8.282928153E1
2.660639958E0,1.100020893E0,1.970485947E1,9.094875235E1,9.306539145E1
2.670585958E0,-9.001090924E0,2.544363032E1,8.922442248E1,9.321692727E1
2.680532958E0,-1.955331835E1,2.979292264E1,7.259990428E1,8.087457326E1
2.690478958E0,-2.742358408E1,2.826723439E1,5.455629024E1,6.728653883E1
2.700424958E0,-3.262500283E1,2.455243747E1,3.878621630E1,5.631681428E1
2.710370958E0,-3.665071024E1,1.918341881E1,2.687345231E1,4.933011815E1
2.720317958E0,-3.842490282E1,1.378490680E1,2.009782043E1,4.550185928E1
2.730263958E0,-3.580772183E1,1.099481897E1,1.484759146E1,4.029305101E1
2.740209958E0,-3.004334018E1,1.013305399E1,8.291258240E0,3.277233643E1
2.750155958E0,-2.472957536E1,9.361566507E0,3.906003206E0,2.672915424E1
2.760102958E0,-1.957042029E1,8.015008290E0,2.541812711E0,2.130029390E1
2.770048958E0,-1.554689156E1,7.127242495E0,5.185053563E-1,1.711058942E1
2.779994958E0,-1.298128653E1,5.925078930E0,-4.899650602E-1,1.427796995E1
2.789940958E0,-1.144450026E1,3.919435430E0,2.927981909E-1,1.210059052E1
2.799887958E0,-1.030409674E1,2.229877789E0,1.032411366E0,1.059304667E1
2.809833958E0,-8.791250142E0,1.086422024E0,4.581913634E-1,8.869967937E0
2.819779958E0,-7.528590115E0,1.781441957E-1,-2.001034141E-1,7.533355550E0
2.829725958E0,-7.471690274E0,-1.532487395E0,5.732856174E-1,7.648746928E0
2.839672958E0,-7.557069563E0,-3.701975725E0,1.582626100E0,8.562629855E0
2.849618958E0,-7.268273828E0,-4.942599351E0,1.796956959E0,8.971407197E0
2.859564958E0,-5.732642385E0,-4.423655453E0,1.394826543E0,7.374107225E0
2.869511958E0,-3.262062795E0,-2.910751553E0,7.620163067E-1,4.437814454E0
2.879457958E0,-7.619050634E-1,-1.518615460E0,-5.548667785E-1,1.787335834E0
2.889403958E0,6.234087905E-1,-5.103900057E-1,-2.685779346E0,2.804023391E0
2.899349958E0,1.392003653E0,-5.812307775E-2,-3.770140811E0,4.019330068E0
2.909296958E0,1.481445149E0,-3.566462409E-1,-2.994726341E0,3.360098529E0
2.919242958E0,1.228574561E0,-5.975240439E-1,-9.777176070E-1,1.679988736E0
2.929188958E0,1.612670702E0,-6.837424082E-1,5.173534548E-1,1.826435071E0
2.939134958E0,2.151003820E0,-2.231736034E-1,2.830742713E-1,2.180998609E0
2.949081958E0,2.873048707E0,3.636126137E-1,-9.276221716E-1,3.040905440E0
2.959027958E0,3.180358188E0,8.704141831E-1,-2.108138759E0,3.913636172E0
2.968973958E0,2.520827346E0,7.608309299E-1,-3.300828080E0,4.222428238E0
2.978919958E0,2.322809049E0,9.356509835E-1,-3.569173179E0,4.360032319E0
2.988866958E0,2.907664808E0,8.750469321E-1,-1.894695507E0,3.579119003E0
2.998812958E0,2.094349855E0,-3.527660286E-1,-6.271466231E-1,2.214510798E0
3.008758958E0,-4.882361116E-3,-1.421865091E0,-2.948294771E-1,1.452118658E0
3.018704958E0,-1.245990346E0,-2.319644828E0,5.275767267E-1,2.685438749E0
3.028651958E0,-1.688155186E0,-2.475585392E0,9.862568808E-1,3.154535402E0
3.038597958E0,-1.034939483E0,-1.698354192E0,4.533539253E-1,2.039861876E0
3.048543958E0,3.708975500E-1,-2.664003146E-1,-1.009953307E0,1.108395147E0
3.058489958E0,1.301239371E0,9.691566986E-1,-2.460476772E0,2.947275785E0
3.068436958E0,1.133209470E0,1.109916721E0,-2.655635780E0,3.093296013E0
3.078382958E0,-3.511831508E-1,4.956678861E-1,-1.734121610E0,1.837442249E0
3.088328958E0,-1.667968989E0,1.158333421E-3,-2.600519925E-1,1.688119940E0
3.098275958E0,-2.448053485E0,-2.615459561E-1,1.375896036E0,2.820365589E0
3.108221958E0,-2.096996890E0,-1.589770228E-1,2.377213590E0,3.173927236E0
3.118167958E0,-1.330910190E0,3.350711846E-1,1.718884351E0,2.199581334E0
3.128113958E0,-4.320840571E-1,9.893214065E-1,5.345296508E-1,1.204647428E0
3.138060958E0,4.304858669E-1,1.598886622E0,-2.035298824E-2,1.655950106E0
3.148006958E0,7.567513275E-1,1.832063642E0,-2.377758551E-1,1.996413563E0
3.157952958E0,5.211853911E-1,1.535213367E0,2.012260795E-2,1.621394219E0
3.167898958E0,-3.635759224E-1,7.071727860E-1,5.755320811E-1,9.815895155E-1
3.177845958E0,-1.561812058E0,-2.187700653E-1,1.065280831E0,1.903139642E0
3.187791958E0,-2.050558449E0,-8.759760547E-1,1.157986096E0,2.512579511E0
3.197737958E0,-2.067441261E0,-1.267212085E0,7.180895376E-1,2.528990395E0
3.207683958E0,-1.434612752E0,-1.067175913E0,8.713637710E-2,1.790131539E0
3.217630958E0,-5.676743369E-1,-7.641843081E-1,-5.442658496E-1,1.096566060E0
3.227576958E0,-2.081430798E-1,-7.818224341E-1,-1.035157145E0,1.313818928E0
3.237522958E0,-3.435630228E-1,-9.230262601E-1,-1.559772842E0,1.844696275E0
3.247468958E0,-7.878234315E-1,-1.102906494E0,-1.833935920E0,2.280436242E0
3.257415958E0,-1.151764293E0,-1.197148992E0,-1.371017704E0,2.153930417E0
3.267361958E0,-1.095615820E0,-1.011523869E0,-5.987701587E-1,1.606885268E0
3.277307958E0,-9.263601963E-1,-6.697488517E-1,1.134196115E-1,1.148725705E0
3.287253958E0,-9.011477333E-1,-3.721676749E-1,5.807407808E-1,1.134828564E0
3.297200958E0,-7.827513374E-1,-2.397954834E-1,5.947366762E-1,1.011885984E0
3.307146958E0,-7.338365279E-1,-3.173108518E-1,3.041475999E-1,8.553993155E-1
3.317092958E0,-8.001777942E-1,-3.709280652E-1,-1.171559823E-1,8.897177395E-1
3.327039958E0,-5.769082599E-1,-2.950271130E-1,-8.177752820E-1,1.043369805E0
3.336985958E0,-3.898929244E-1,-1.487695384E-1,-1.346660542E0,1.409838106E0
3.346931958E0,-7.408672200E-1,-2.374343777E-1,-1.326472446E0,1.537786874E0
3.356877708E0,-1.211507708E0,-4.462197375E-1,-6.139879759E-1,1.429630796E0
3.366824708E0,-1.660264698E0,-7.184760386E-1,2.175503361E-1,1.822090787E0
3.376770708E0,-1.882474973E0,-8.360231996E-1,8.549564108E-1,2.230156335E0
3.386716708E0,-1.878484102E0,-7.860277516E-1,8.978808939E-1,2.225473488E0
3.396662708E0,-1.566383119E0,-3.904197586E-1,1.087921615E-1,1.617967675E0
3.406609708E0,-1.270930475E0,-3.324902236E-2,-8.640266848E-1,1.537176594E0
3.416555708E0,-9.717136860E-1,1.430497921E-1,-1.342645844E0,1.663546992E0
3.426501708E0,-9.082559010E-1,2.047443491E-1,-1.364880466E0,1.652194818E0
3.436447708E0,-1.293816916E0,-1.438882828E-2,-1.043259047E0,1.662094669E0
3.446394708E0,-1.820382659E0,-2.158721852E-1,-6.189254379E-1,1.934802967E0
3.456340708E0,-2.054114872E0,-1.976399821E-1,-3.269642394E-2,2.063860103E0
3.466286708E0,-2.015296377E0,-5.064098060E-2,5.036662924E-1,2.077898874E0
3.476232708E0,-1.922300066E0,2.917175889E-3,7.467794859E-1,2.062262266E0
3.486179708E0,-1.604808828E0,1.268781477E-1,6.938482241E-1,1.752978835E0
3.496125708E0,-1.059274205E0,3.657626349E-1,9.646969541E-1,1.478676557E0
3.506071708E0,-8.546680699E-1,4.315900040E-1,1.130804729E0,1.481704011E0
3.516017708E0,-9.741003732E-1,4.806762099E-1,7.451983988E-1,1.317285774E0
3.525964708E0,-1.191361272E0,3.839585853E-1,3.124716961E-1,1.290117993E0
3.535910708E0,-1.482089074E0,6.946667612E-2,-1.073431119E-1,1.487594093E0
3.545856708E0,-1.506337477E0,-2.006203079E-1,-3.759619331E-1,1.565454719E0
3.555802708E0,-1.285377045E0,-3.446530169E-1,-3.878060532E-1,1.386136135E0
3.565749708E0,-6.736065522E-1,-1.911986893E-1,-3.632723057E-1,7.888406012E-1
3.575695708E0,-1.701589273E-1,-4.666896701E-2,-2.121030700E-1,2.758981068E-1
3.585641708E0,3.775234686E-2,-3.792036295E-2,-2.140549437E-1,2.206415930E-1
3.595588708E0,-1.707035955E-1,-1.347221875E-1,-2.106505486E-1,3.027597049E-1
3.605534708E0,-8.970608220E-1,-3.366019857E-1,6.206812106E-2,9.601413785E-1
3.615480708E0,-1.664119036E0,-5.287947017E-1,-1.179897952E-1,1.750096453E0
3.625426708E0,-2.122374975E0,-5.820376933E-1,-3.697019771E-1,2.231574100E0
3.635373708E0,-1.945650483E0,-4.995282179E-1,-2.181221207E-1,2.020559701E0
3.645319708E0,-1.344878457E0,-5.478735816E-1,1.188107443E-1,1.457044790E0
3.655265708E0,-7.815163323E-1,-4.739413869E-1,1.943263650E-1,9.344254663E-1
3.665211708E0,-4.491876015E-1,-2.600180787E-1,2.374555007E-1,5.707574068E-1
3.675158708E0,-4.221144448E-1,-4.219111079E-1,2.963381318E-1,6.663376590E-1
3.685104708E0,-2.209586599E-1,-5.688808733E-1,6.781810483E-1,9.123473635E-1
3.695050708E0,4.823685403E-1,-2.495112169E-1,1.006767817E0,1.143904145E0
3.704996708E0,1.045496119E0,-1.879061222E-2,1.090567700E0,1.510878264E0
3.714943708E0,1.123354134E0,1.445197821E-2,1.350947721E0,1.757041011E0
3.724889708E0,1.199097650E0,1.218857950E-1,1.625203185E0,2.023357782E0
3.734835708E0,2.217580802E0,6.720497310E-1,1.965246842E0,3.038340107E0
3.744781708E0,3.493319589E0,9.757494342E-1,2.398688074E0,4.348456414E0
3.754728708E0,4.657153778E0,1.089014679E0,2.286204017E0,5.301109609E0
3.764674708E0,5.654517152E0,1.555346500E0,2.217167112E0,6.269648871E0
3.774620708E0,6.965210302E0,1.754217321E0,3.078341525E0,7.814577372E0
3.784566708E0,8.120800794E0,1.742242223E0,4.674422067E0,9.530636661E0
3.794513708E0,1.025918194E1,2.187660892E0,4.965233338E0,1.160561141E1
3.804459708E0,1.389012393E1,2.917368262E0,4.436194807E0,1.487031959E1
3.814405708E0,1.982926249E1,2.803111330E0,4.810469234E0,2.059606026E1
3.824352708E0,2.481995929E1,1.636089531E0,3.962917664E0,2.518753430E1
3.834298708E0,2.793533006E1,8.690599680E-1,3.138752618E0,2.812453908E1
3.844244708E0,3.044101633E1,2.471080112E-1,4.798832105E0,3.081793840E1
3.854190708E0,3.235234951E1,-1.433056077E0,4.935978549E0,3.275808377E1
3.864137708E0,3.363898955E1,-2.590491951E0,1.755031253E0,3.378420343E1
3.874083708E0,3.777332185E1,-2.279221857E0,-2.536623892E0,3.792694499E1
3.884029708E0,4.541803240E1,-1.215744892E0,-3.369183201E0,4.555905068E1
3.893975708E0,5.230245056E1,-1.171208990E-1,4.569998982E0,5.250185656E1
3.903922708E0,5.374866813E1,1.558577671E0,1.623645370E1,5.616912781E1
3.913868708E0,4.943936843E1,1.414071922E0,2.399922071E1,5.497466093E1
3.923814708E0,4.206771817E1,-7.499580324E-1,2.794202629E1,5.050754579E1
3.933760708E0,3.633094472E1,-3.123998339E0,3.370706517E1,4.965745818E1
3.943707708E0,2.960722677E1,-4.528557426E0,4.023179069E1,5.015668142E1
3.953653708E0,2.241026324E1,-3.589881678E0,4.369514797E1,4.923792345E1
3.963599708E0,1.844227721E1,7.723329878E-1,5.168577981E1,5.488291101E1
3.973545708E0,1.483521758E1,7.899977771E0,6.358913914E1,6.577288154E1
3.983492708E0,6.060419753E0,1.379885240E1,7.157816650E1,7.314759692E1
3.993438708E0,-7.450263737E0,1.260704134E1,8.424799290E1,8.551121697E1
4.003384708E0,-2.576565520E1,6.928187487E0,8.727122792E1,9.125862147E1
4.013330708E0,-4.280948191E1,1.806646380E0,7.369846045E1,8.524892249E1
4.023277708E0,-4.923717171E1,1.345948936E0,5.458460479E1,7.352271579E1
4.033223708E0,-4.713187470E1,3.112493357E0,4.000420770E1,6.189860952E1
4.043169708E0,-4.338618577E1,2.388716817E0,2.743144976E1,5.138629700E1
4.053116708E0,-4.014010634E1,5.834515500E-1,1.594979629E1,4.319681186E1
4.063062708E0,-3.844474593E1,-2.594593188E0,8.182790051E0,3.939147695E1
4.073008708E0,-3.760259485E1,-7.031192622E0,2.667359447E0,3.834719827E1
4.082954708E0,-3.371453324E1,-8.269714174E0,-2.553784300E0,3.480775399E1
4.092901708E0,-2.705382721E1,-5.963781066E0,-7.128922985E0,2.860590489E1
4.102847708E0,-2.003158083E1,-3.317660460E0,-1.005520650E1,2.265785249E1
4.112793708E0,-1.409958406E1,-1.285715598E0,-9.560363653E0,1.708367315E1
4.122739708E0,-1.062039602E1,-8.829821885E-2,-6.228316119E0,1.231229182E1
4.132686708E0,-9.616460670E0,1.441753811E-1,-3.603303376E0,1.027038936E1
4.142632708E0,-8.873414631E0,9.391330004E-2,-2.279914752E0,9.162113196E0
4.152578708E0,-8.149497759E0,5.104151487E-2,2.799237549E-1,8.154463579E0
4.162524708E0,-7.332236520E0,-1.952753681E-1,5.497973156E0,9.166653352E0
4.172471708E0,-5.160366034E0,3.885375398E-1,9.866570642E0,1.114134441E1
4.182417708E0,-1.357967596E0,2.722813856E0,9.176651820E0,9.667922730E0
4.192363708E0,2.160569134E0,5.184809150E0,5.162160544E0,7.628774894E0
4.202309708E0,3.941556616E0,6.489911191E0,1.145675368E0,7.679022586E0
4.212256708E0,3.272581351E0,6.050045038E0,-1.462520782E0,7.032197431E0
4.222202708E0,1.486536320E0,4.444746945E0,-2.026937306E0,5.106274618E0
4.232148708E0,-1.551732263E-2,2.898270671E0,-1.414216933E0,3.224937706E0
4.242094708E0,-4.421538030E-1,1.554323822E0,-8.176665238E-1,1.811077324E0
4.252041708E0,-1.217305953E0,2.464694953E-1,3.541961845E-1,1.291524654E0
4.261987708E0,-1.831602442E0,-6.089161742E-1,1.649493688E0,2.538971414E0
4.271933708E0,-1.591205865E0,-7.054770935E-1,8.590952162E-1,1.941050908E0
4.281879708E0,-6.896414448E-1,2.566342950E-2,-8.168818275E-1,1.069373580E0
4.291826708E0,8.843786497E-1,1.083665062E0,-1.383937712E0,1.967673538E0
4.301772708E0,1.620314328E0,1.443136677E0,-1.650235115E0,2.726048042E0
4.311718708E0,9.655301093E-1,1.301589620E0,-1.778962737E0,2.406468855E0
4.321664708E0,-8.858129717E-3,9.091771299E-1,-9.984108301E-1,1.350372432E0
4.331611708E0,-1.425002707E0,-3.452897787E-2,3.842848599E-1,1.476312914E0
4.341557708E0,-3.104370405E0,-1.234354826E0,1.718462913E0,3.756842055E0
4.351504000E0,-4.300085368E0,-2.185065898E0,2.697193111E0,5.526309603E0
4.361451000E0,-4.276526644E0,-2.154759194E0,3.564073237E0,5.969445984E0
4.371397000E0,-2.398309759E0,-1.154646167E0,4.961043223E0,5.630013085E0
4.381343000E0,-3.698621909E-1,2.445288044E-1,4.944602022E0,4.964441714E0
4.391289000E0,1.900557780E-1,1.491758614E0,2.886746979E0,3.254961303E0
4.401236000E0,-1.472131923E-1,1.863556745E0,5.773423791E-2,1.870253648E0
4.411182000E0,-9.486999223E-1,1.340210479E0,-1.956892340E0,2.554529957E0
4.421128000E0,-2.258896789E0,1.682249790E-1,-2.421956484E0,3.316140462E0
4.431074000E0,-3.012696004E0,-6.255678749E-1,-1.783640510E0,3.556549711E0
4.441021000E0,-2.000618111E0,-2.209791434E-1,-1.372657994E-1,2.017460411E0
4.450967000E0,1.554846453E-1,7.837508458E-1,1.174084650E0,1.420181548E0
4.460913000E0,1.775664469E0,1.915551941E0,9.216275331E-1,2.769787150E0
4.470859000E0,1.837858963E0,2.057948599E0,-1.145702704E-1,2.761522108E0
4.480806000E0,5.838017251E-1,1.304514982E0,-1.482106615E0,2.058937544E0
4.490752000E0,-4.999361708E-1,4.610137779E-1,-2.068855995E0,2.177759171E0
4.500698000E0,-1.323463030E0,-4.787290871E-1,-1.685855184E0,2.196097364E0
4.510644000E0,-1.984313297E0,-1.113090590E0,-1.445745120E0,2.695672249E0
4.520591000E0,-1.984085840E0,-1.239599778E0,-9.348820015E-1,2.519366703E0
4.530537000E0,-1.262494405E0,-1.070854982E0,2.501899324E-2,1.655671605E0
4.540483000E0,-6.875115965E-1,-6.760398710E-1,-9.843319774E-2,9.692219544E-1
4.550429000E0,-6.614417124E-1,-6.402683598E-1,-7.780983424E-1,1.205357101E0
4.560376000E0,-9.896870036E-1,-1.122221017E0,-6.810742506E-1,1.643995897E0
4.570322000E0,-1.411245378E0,-1.576842619E0,-4.405420180E-1,2.161509526E0
4.580268000E0,-1.640704592E0,-1.842737149E0,-5.160810276E-1,2.520700575E0
4.590215000E0,-1.754157971E0,-1.920744853E0,-6.028770968E-1,2.670166993E0
4.600161000E0,-1.439603351E0,-1.724156785E0,-3.459025669E-1,2.272624697E0
4.610107000E0,-8.659316345E-1,-1.622561413E0,1.592103998E-1,1.846047423E0
4.620053000E0,-4.832747491E-1,-1.368386457E0,1.130501405E-1,1.455615441E0
4.630000000E0,-5.269084265E-1,-1.290110950E0,-1.502359470E-1,1.401638182E0
4.639946000E0,-6.666514353E-1,-1.267424923E0,-5.107846928E-1,1.520424636E0
4.649892000E0,-7.383062126E-1,-1.101363999E0,-9.413233674E-1,1.626096062E0
4.659838000E0,-7.970414208E-1,-9.194337308E-1,-9.131292629E-1,1.521327862E0
4.669785000E0,-5.168132086E-1,-5.812904191E-1,-3.615379485E-1,8.577319699E-1
4.679731000E0,8.158546910E-2,-2.170556617E-1,1.919559769E-1,3.010256569E-1
4.689677000E0,4.220530125E-1,1.718619472E-1,2.601870632E-1,5.247500187E-1
4.699623000E0,6.741458116E-1,4.904357976E-1,3.919739485E-2,8.345874925E-1
4.709570000E0,5.926486355E-1,5.420918548E-1,-3.403382834E-1,8.723107998E-1
4.719516000E0,5.372190594E-2,7.354610306E-1,-3.703380080E-1,8.251904089E-1
4.729462000E0,-2.940159466E-1,6.639326262E-1,-1.254028221E-1,7.368702578E-1
4.739408000E0,-4.263412874E-1,1.591389906E-1,-2.719387972E-1,5.301347198E-1
4.749355000E0,-8.340142424E-1,-6.624135196E-2,-4.966309226E-1,9.729388195E-1
4.759301000E0,-1.079687493E0,2.060149491E-2,-6.844399810E-1,1.278517732E0
4.769247000E0,-3.097894321E-1,2.472524375E-1,-5.948536205E-1,7.148105273E-1
4.779193000E0,2.499505986E-1,4.009804147E-1,-4.462923161E-1,6.499518645E-1
4.789140000E0,-1.293767361E-1,5.720091337E-1,-6.167182602E-2,5.896916169E-1
4.799086000E0,-2.023889079E-1,5.200355726E-1,6.934177959E-1,8.900710683E-1
4.809032000E0,-9.307002191E-2,3.596873778E-1,6.225576552E-1,7.249931536E-1
4.818978000E0,2.396547116E-1,5.760238320E-1,3.516982540E-1,7.161909645E-1
4.828925000E0,6.113984634E-1,7.191057837E-1,2.904580256E-1,9.875662377E-1
4.838871000E0,7.858786476E-1,6.204942459E-1,4.828513741E-1,1.111649139E0
4.848817000E0,8.552131766E-1,7.265750170E-1,6.289966822E-1,1.286443803E0
4.858763000E0,5.773106579E-1,7.057408029E-1,2.992465003E-1,9.596385489E-1
4.868710000E0,3.047896973E-1,6.124677730E-1,-1.551453424E-1,7.014867139E-1
4.878656000E0,-6.752093288E-2,4.481639367E-1,-2.887646719E-1,5.373965261E-1
4.888602000E0,-6.269989809E-1,-2.051846445E-2,-1.839475572E-1,6.537472243E-1
4.898548000E0,-9.739761930E-1,-3.031103039E-1,-3.001785100E-1,1.063302694E0
4.908495000E0,-4.702893988E-1,-3.003013015E-2,-5.834818093E-1,7.500166326E-1
4.918441000E0,4.365496854E-1,3.114402473E-1,-7.750648069E-1,9.424946209E-1
4.928387000E0,6.192093202E-1,4.325834459E-1,-7.780620897E-1,1.084402709E0
4.938334000E0,1.582059760E-1,2.532692224E-1,-4.334658638E-1,5.263716225E-1
4.948280000E0,-5.457775376E-1,-9.326308966E-4,1.102211845E-1,5.567968209E-1
4.958226000E0,-1.300015403E0,-4.110089743E-1,5.134429101E-1,1.456911818E0
4.968172000E0,-1.436755903E0,-5.461942613E-1,7.556964898E-1,1.712796801E0
4.978119000E0,-8.334854349E-1,-3.364534664E-1,8.861549608E-1,1.262208192E0
4.988065000E0,-5.201327461E-1,-1.420212668E-1,5.850023047E-1,7.955726304E-1
4.998011000E0,-5.341348176E-1,1.018672675E-1,1.658200192E-1,5.684832648E-1
5.007957000E0,-4.193761937E-1,2.675855452E-1,6.707706526E-2,5.019738524E-1
5.017904000E0,-2.642761125E-1,1.111760348E-1,1.062720481E-1,3.057707026E-1
5.027850000E0,-4.091558820E-1,1.111087918E-2,1.746412019E-1,4.450073447E-1
5.037796000E0,-6.227557296E-1,6.810076654E-2,9.958276033E-2,6.343336183E-1
5.047742000E0,-6.456840509E-1,-2.814089477E-2,-1.514919289E-1,6.638144380E-1
5.057689000E0,-5.797456578E-1,-6.015030742E-2,-2.257244512E-2,5.832946104E-1
5.067635000E0,-4.929757915E-1,1.876172698E-1,5.666852438E-1,7.741818498E-1
5.077581000E0,-7.161404322E-2,1.568989223E-1,1.141145019E0,1.154104760E0
5.087527000E0,2.909532847E-1,1.511680663E-1,1.104708679E0,1.152339735E0
5.097474000E0,2.947704385E-1,2.493901795E-1,4.081532673E-1,5.618488788E-1
5.107420000E0,3.281618223E-1,2.755213863E-1,-2.948293309E-1,5.201216687E-1
5.117366000E0,6.382374299E-2,1.919956648E-1,-2.222930127E0,2.232118760E0
5.127312000E0,-1.926706893E-1,3.121079993E-1,-1.621189656E0,1.662164041E0
5.137259000E0,5.793835690E-1,3.782587194E-1,5.538950443E-2,6.941418991E-1
5.147205000E0,4.886929984E-1,2.137747890E-1,1.059508386E0,1.186203409E0
5.157151000E0,-4.350235712E-2,3.052597404E-2,1.756125852E0,1.756929793E0
5.167097000E0,-1.892981067E-1,-1.982463384E-1,1.563869401E0,1.587709951E0
5.177044000E0,-3.064048262E-1,-3.822120219E-1,1.003564639E0,1.116741659E0
5.186990000E0,-9.787956143E-1,-4.901551312E-1,-5.910062257E-1,1.244018194E0
5.196936000E0,-1.236561272E0,-5.890297937E-1,-2.392390623E0,2.756732263E0