"Time (s)","Linear Acceleration x (m/s^2)","Linear Acceleration y (m/s^2)","Linear Acceleration z (m/s^2)","Absolute acceleration (m/s^2)"
7.507333299E-3,-5.033933736E-2,-4.129169208E-1,4.408259735E-2,4.183033681E-1
1.745333336E-2,5.608736231E-1,-2.207873547E-1,6.078641139E-1,8.560520183E-1
2.739833319E-2,1.425621781E0,-2.019663370E-1,1.027017090E0,1.768601698E0
3.734433325E-2,2.165169285E0,-1.709883732E-1,9.139898269E-1,2.356389709E0
4.729033331E-2,2.422602748E0,-3.086341685E-1,5.177830790E-1,2.496469195E0
5.723633338E-2,2.230561913E0,-5.883661348E-1,-8.386544466E-2,2.308379208E0
6.718233321E-2,1.658644873E0,-6.971319473E-1,-6.312133616E-1,1.906705555E0
7.712833327E-2,9.188818999E-1,-6.279897916E-1,-1.066743804E0,1.541641161E0
8.707433334E-2,2.760093364E-1,-3.737762439E-1,-1.143541865E0,1.234332950E0
9.702033317E-2,-5.807841964E-2,-1.118911493E-1,-1.010760223E0,1.018591655E0
1.069663332E-1,-8.300911993E-2,-9.156213462E-2,-9.370796044E-1,9.451943311E-1
1.169123333E-1,2.339586465E-1,-1.129699606E-1,-7.924392235E-1,8.339417145E-1
1.268583334E-1,5.303977890E-1,-2.351890469E-1,-6.644103438E-1,8.820866211E-1
1.368043332E-1,6.024651604E-1,-4.607968462E-1,-5.294213770E-1,9.249783767E-1
1.467503333E-1,6.109224270E-1,-4.523259848E-1,-2.880244875E-1,8.128856707E-1
1.566963333E-1,7.701782888E-1,-1.080735022E-1,1.152399959E-1,7.862154508E-1
1.666423334E-1,9.111965389E-1,2.305036730E-1,4.838350220E-1,1.057122228E0
1.765883332E-1,9.933572278E-1,3.378263927E-1,6.952047050E-1,1.258648019E0
1.865343333E-1,9.920793188E-1,3.456300867E-1,6.876734912E-1,1.255617920E0
1.964803333E-1,9.748647505E-1,4.533545101E-1,5.655029368E-1,1.214777825E0
2.064263332E-1,1.057927957E0,6.042109197E-1,2.710798413E-1,1.248105235E0
2.163723332E-1,1.167131872E0,6.336364478E-1,-1.523477420E-2,1.328128026E0
2.263183333E-1,1.177747346E0,5.128569460E-1,-2.710316017E-2,1.284852381E0
2.362643334E-1,1.117926310E0,3.721115416E-1,-2.684295908E-2,1.178535862E0
2.462103332E-1,9.517087533E-1,2.518822628E-1,-9.697270945E-2,9.892410888E-1
2.561563333E-1,6.065644971E-1,1.097955072E-1,-8.928245142E-2,6.228538341E-1
2.661023333E-1,2.709612159E-1,-3.054760873E-2,-6.000778154E-2,2.792025622E-1
2.760483334E-1,1.531874387E-1,-4.740279257E-2,-1.335271628E-1,2.086694020E-1
2.859943332E-1,1.896556822E-1,1.598102510E-2,-1.879031986E-1,2.674551981E-1
2.959403333E-1,3.363559641E-1,4.145675898E-2,-1.183571465E-1,3.589741099E-1
3.058863333E-1,5.560203245E-1,6.496315062E-2,-1.324058130E-2,5.599590388E-1
3.158323332E-1,7.345955696E-1,1.080898744E-1,-3.499105409E-2,7.433292983E-1
3.257783332E-1,8.701051578E-1,1.867659152E-1,-9.126407281E-2,8.945913166E-1
3.357243333E-1,8.382514273E-1,2.312263888E-1,-2.226923776E-1,8.976207402E-1
3.456703334E-1,6.130144145E-1,1.657498527E-1,-2.925981796E-1,6.991948089E-1
3.556163332E-1,3.325955101E-1,8.938989401E-2,-2.972952479E-1,4.549668020E-1
3.655623333E-1,2.256049488E-1,1.016614455E-1,-2.652548450E-1,3.627571849E-1
3.755083333E-1,2.967458289E-1,8.420516789E-2,-1.241148998E-1,3.324952716E-1
3.854543334E-1,3.706558407E-1,-1.066906357E-1,6.844633698E-2,3.917314706E-1
3.954003332E-1,3.714998132E-1,-3.658480042E-1,1.617852943E-1,5.459224806E-1
4.053463333E-1,2.876949969E-1,-5.016145045E-1,2.433925442E-1,6.273957706E-1
4.152923333E-1,1.522337579E-1,-4.881431043E-1,3.388525790E-1,6.134165613E-1
4.252383332E-1,5.994996719E-2,-4.032087886E-1,3.084580211E-1,5.111924066E-1
4.351843332E-1,1.102462544E-1,-2.635433650E-1,1.884469897E-1,3.422303461E-1
4.451303333E-1,3.222377157E-1,-4.408040464E-2,2.196984570E-1,3.924890311E-1
4.550763334E-1,5.549357391E-1,5.820786238E-2,2.433235471E-1,6.087266861E-1
4.650223332E-1,6.160155711E-1,-7.578400791E-2,1.402431285E-1,6.363069501E-1
4.749683333E-1,5.324438759E-1,-1.734184760E-1,-1.926730648E-2,5.603049865E-1
4.849143333E-1,2.813620421E-1,-2.131620008E-1,-1.715785034E-1,3.924816176E-1
4.948603334E-1,5.568431374E-3,-1.882657260E-1,-2.767658199E-1,3.347750141E-1
5.048063332E-1,-8.123028729E-2,-4.308754742E-2,-3.451495917E-1,3.571878175E-1
5.147523333E-1,-1.525911324E-2,1.548851413E-1,-3.425165905E-1,3.762178389E-1
5.246983333E-1,7.527866229E-2,2.876046574E-1,-9.261594906E-2,3.113856612E-1
5.346443332E-1,1.831686898E-1,2.149027169E-1,1.161409056E-1,3.053238553E-1
5.445903332E-1,2.460619626E-1,5.080236375E-2,1.537301700E-1,2.945510733E-1
5.545363333E-1,2.953777632E-2,-7.587171614E-2,1.424049903E-1,1.640371263E-1
5.644823334E-1,-2.660567541E-1,-4.253907859E-2,2.279753369E-1,3.529426637E-1
5.744283332E-1,-4.063367566E-1,1.122852516E-1,4.298660986E-1,6.020817223E-1
5.843743333E-1,-4.371747893E-1,2.335798931E-1,6.681144087E-1,8.319003702E-1
5.943203333E-1,-3.705814715E-1,2.445831835E-1,7.963222133E-1,9.117459229E-1
6.042663334E-1,-2.187730620E-1,2.129555941E-3,7.607812285E-1,7.916149729E-1
6.142123332E-1,-2.771385617E-2,-5.955798447E-2,6.718497562E-1,6.750535581E-1
6.241583750E-1,1.029390804E-1,4.192418540E-1,5.639445077E-1,7.102067263E-1
6.341043750E-1,3.234883621E-1,5.496838796E-1,5.161682242E-1,8.205039449E-1
6.440503749E-1,5.415193393E-1,3.691452491E-1,5.688093911E-1,8.677877236E-1
6.539963749E-1,4.326135591E-1,2.104050386E-1,6.211539580E-1,7.856570570E-1
6.639423750E-1,2.006651853E-1,-6.208807468E-2,5.393359159E-1,5.787958844E-1
6.738883751E-1,3.819890969E-2,-1.852941710E-1,3.515981935E-1,3.992672991E-1
6.838343749E-1,9.023304423E-4,-1.117139786E-1,7.798066065E-2,1.362417361E-1
6.937803749E-1,5.346465129E-2,4.426517665E-2,-7.762895063E-2,1.041351467E-1
7.037263750E-1,1.536672941E-1,1.125390208E-1,-8.518399179E-2,2.086503797E-1
7.136723748E-1,1.838854305E-1,5.131516457E-2,-4.284839630E-3,1.909593086E-1
7.236183749E-1,9.146708082E-2,-9.843436718E-2,1.081960014E-1,1.725164520E-1
7.335643750E-1,4.025270307E-2,-2.486054832E-1,2.711475228E-1,3.700620833E-1
7.435103750E-1,-7.825506865E-2,-2.862562895E-1,4.240435874E-1,5.175707518E-1
7.534563749E-1,-1.258722256E-1,-2.430044353E-1,4.745034505E-1,5.477668275E-1
7.634023749E-1,-5.727377881E-2,-1.713713658E-1,4.656816101E-1,4.995075502E-1
7.733483750E-1,9.982623291E-2,-1.517820239E-1,2.854897195E-1,3.383894790E-1
7.832943751E-1,3.003563749E-1,-1.035436642E-1,8.633589327E-2,3.292250428E-1
7.932403749E-1,4.379703395E-1,-4.410847127E-2,7.639270306E-2,4.467655096E-1
8.031863749E-1,3.171747579E-1,-6.681262493E-2,1.382990755E-1,3.524065666E-1
8.131323750E-1,9.686861074E-2,-8.233932137E-2,1.052235693E-1,1.650311823E-1
8.230783748E-1,-1.791255960E-1,-6.601214111E-2,5.617259279E-2,1.989948293E-1
8.330243749E-1,-5.182257132E-1,-1.406079948E-1,7.306907259E-2,5.419110512E-1
8.429703750E-1,-7.663947017E-1,-1.488426286E-1,1.923330492E-1,8.040565706E-1
8.529163750E-1,-7.999555269E-1,-1.399338108E-1,4.114744127E-1,9.103963470E-1
8.628623749E-1,-6.148434967E-1,-1.424785191E-1,6.340579589E-1,8.946296156E-1
8.728083749E-1,-3.265726587E-1,-8.245801985E-2,8.321687150E-1,8.977492950E-1
8.827543750E-1,-1.465343671E-1,-3.573058069E-2,8.933288366E-1,9.059720776E-1
8.927003751E-1,-1.158966473E-1,3.673279345E-2,6.087243855E-1,6.207468957E-1
9.026463749E-1,-1.049198795E-1,2.178491288E-1,1.035740697E-1,2.630475470E-1
9.125923750E-1,-9.179330064E-2,3.611655539E-1,-1.542957419E-1,4.033283320E-1
9.225383750E-1,8.423860665E-2,4.054938805E-1,1.994441405E-2,4.146314142E-1
9.324843748E-1,2.206337557E-1,4.629316646E-1,3.626887536E-1,6.281147285E-1
9.424303749E-1,1.070805993E-1,5.099280757E-1,7.134187087E-1,8.834359914E-1
9.523763750E-1,-1.653520958E-1,6.305274832E-1,9.271308593E-1,1.133348072E0
9.623223750E-1,-4.777214657E-1,8.494279414E-1,1.140059702E0,1.499827241E0
9.722683749E-1,-6.656188171E-1,1.066274273E0,1.115021852E0,1.680256815E0
9.822143749E-1,-5.187359559E-1,1.243801003E0,1.001154563E0,1.678820534E0
9.921603750E-1,-6.857472905E-3,1.457534276E0,8.727660795E-1,1.698874280E0
1.002106375E0,4.327499088E-1,1.508412654E0,8.631250441E-1,1.790967911E0
1.012052375E0,4.292496559E-1,1.229610395E0,7.916972119E-1,1.524133021E0
1.021998375E0,1.613470089E-1,7.827345997E-1,6.289732202E-1,1.017012105E0
1.031944375E0,-1.290730554E-1,3.539875120E-1,4.899680203E-1,6.180903439E-1
1.041890375E0,-2.722099801E-1,8.230657697E-2,6.556393741E-1,7.146577046E-1
1.051836375E0,-1.538199796E-1,4.094103456E-2,7.223884106E-1,7.397173583E-1
1.061782375E0,4.110083713E-2,6.367851734E-2,6.973517295E-1,7.014582432E-1
1.071728375E0,3.026825435E-1,1.243825561E-1,5.656467783E-1,6.534860521E-1
1.081674375E0,5.445493665E-1,1.646382970E-1,4.644361532E-1,7.343982038E-1
1.091620375E0,9.887912833E-1,1.622935635E-1,4.056242734E-1,1.081008073E0
1.101566375E0,1.573259445E0,1.787593228E-1,2.908223802E-1,1.609868887E0
1.111512375E0,2.125096854E0,6.527831554E-3,7.507088149E-1,2.253806331E0
1.121458375E0,2.810544603E0,-5.547955155E-2,1.725875282E0,3.298618564E0
1.131404375E0,3.407939131E0,-1.095984560E-1,2.665770174E0,4.328093294E0
1.141350375E0,4.311436860E0,-1.548792940E-1,3.325044909E0,5.446870573E0
1.151296375E0,6.008415787E0,3.127769208E-1,3.706127833E0,7.066418696E0
1.161242375E0,7.964369064E0,9.902341568E-1,4.057403407E0,8.993011769E0
1.171188375E0,9.676663603E0,1.397574588E0,4.593497772E0,1.080237266E1
1.181134375E0,1.111174691E1,1.540602745E0,4.994251900E0,1.227953290E1
1.191080375E0,1.199469869E1,1.121386619E0,5.413514804E0,1.320743909E1
1.201026375E0,1.217646641E1,9.952194929E-2,5.760223117E0,1.347057568E1
1.210972375E0,1.223640037E1,-5.982654709E-1,5.764445976E0,1.353943326E1
1.220918375E0,1.302776604E1,2.629200518E-2,5.446607705E0,1.412051397E1
1.230864375E0,1.424714673E1,1.382792827E0,4.975844865E0,1.515428448E1
1.240810375E0,1.540575380E1,2.680711564E0,4.835598228E0,1.636784882E1
1.250756375E0,1.629470249E1,3.584471249E0,5.899706692E0,1.769667490E1
1.260702375E0,1.663808140E1,3.733989816E0,7.199616407E0,1.850953562E1
1.270648375E0,1.535060988E1,2.889325016E0,6.757353480E0,1.701914360E1
1.280594375E0,1.312451173E1,2.052041157E0,5.976097641E0,1.456631128E1
1.290540375E0,1.068254140E1,1.551697837E0,5.521445634E0,1.212480181E1
1.300486375E0,9.060574064E0,7.381519192E-1,4.411147090E0,1.010431043E1
1.310432375E0,8.223575549E0,1.331118643E-1,3.594832515E0,8.975953119E0
1.320378375E0,7.039456492E0,-5.337279975E-2,3.690149732E0,7.948207433E0
1.330324375E0,5.334761580E0,-5.033435261E-1,4.026802588E0,6.702848268E0
1.340270375E0,3.296280408E0,-1.097984308E0,4.315846245E0,5.540538140E0
1.350216375E0,3.889094228E-1,-2.011462065E0,4.546556910E0,4.986823629E0
1.360162375E0,-2.197272691E0,-2.857793321E0,4.117351985E0,5.472437968E0
1.370108375E0,-4.099704796E0,-2.900659259E0,3.079755381E0,5.891205034E0
1.380054375E0,-4.971137856E0,-2.007787090E0,1.435110204E0,5.550041611E0
1.390000375E0,-5.013697400E0,-5.570940560E-1,5.685715556E-1,5.076493772E0
1.399946375E0,-5.667117902E0,5.179837847E-1,2.358415961E-1,5.695625846E0
1.409892375E0,-7.124401917E0,8.069204378E-1,1.730964406E-1,7.172041944E0
1.419838375E0,-8.948191749E0,3.220886117E-1,8.802883762E-1,8.997154232E0
1.429784375E0,-1.087990247E1,-6.024719578E-1,1.559755885E0,1.100763774E1
1.439730375E0,-1.247602277E1,-1.478736865E0,1.566657354E0,1.266065647E1
1.449676375E0,-1.313090742E1,-1.908658658E0,1.491380299E0,1.335245006E1
1.459622375E0,-1.251161595E1,-2.053756730E0,1.315776573E0,1.274714549E1
1.469568375E0,-1.158264307E1,-2.082125666E0,8.609001786E-1,1.179974647E1
1.479514375E0,-1.086006053E1,-1.525774791E0,3.015023196E-1,1.097086173E1
1.489460375E0,-1.038061925E1,-8.915963066E-1,-1.193458230E0,1.048697013E1
1.499406375E0,-9.755847182E0,-6.318840373E-1,-2.933819988E0,1.020701383E1
1.509352375E0,-9.183156263E0,-6.206094360E-1,-4.169320868E0,1.010439268E1
1.519298375E0,-8.846588776E0,-8.784599519E-1,-4.473765507E0,9.952306399E0
1.529244375E0,-8.677596642E0,-1.331218046E0,-4.228314596E0,9.744304454E0
1.539190375E0,-8.710230537E0,-1.686731097E0,-3.575910341E0,9.565579573E0
1.549136375E0,-8.735674696E0,-1.836505187E0,-2.570994995E0,9.289498316E0
1.559082375E0,-8.485358317E0,-1.835340421E0,-1.786482841E0,8.863481324E0
1.569028375E0,-7.364125480E0,-1.259264549E0,-1.717013242E0,7.665782789E0
1.578974375E0,-5.643504506E0,-1.334574348E-1,-2.091592308E0,6.020109001E0
1.588920375E0,-4.142549099E0,1.044191093E0,-2.637254473E0,5.020573596E0
1.598866375E0,-3.001302704E0,1.764739970E0,-3.377868070E0,4.850991423E0
1.608812375E0,-2.455389694E0,1.821482520E0,-3.886881641E0,4.945157835E0
1.618758375E0,-2.701364222E0,1.427622845E0,-3.521130116E0,4.661955914E0
1.628704333E0,-2.985039843E0,9.863931209E-1,-2.629763605E0,4.098669403E0
1.638650333E0,-3.118682050E0,5.647533238E-1,-1.958968102E0,3.725946869E0
1.648596333E0,-3.236949003E0,1.908361620E-1,-1.607867360E0,3.619322414E0
1.658542333E0,-3.135674351E0,-6.578234553E-2,-1.455124639E0,3.457480104E0
1.668488333E0,-2.708036188E0,-1.269986004E-1,-1.524744512E0,3.110375293E0
1.678434333E0,-2.334734738E0,-1.711789924E-1,-1.689577521E0,2.887033208E0
1.688380333E0,-2.214537180E0,-4.356111342E-1,-1.733964320E0,2.846149020E0
1.698326333E0,-2.228136196E0,-5.847233194E-1,-1.373933710E0,2.682197999E0
1.708272333E0,-2.123773191E0,-4.218555593E-1,-7.579774886E-1,2.294102123E0
1.718218333E0,-1.751260091E0,-2.670639735E-1,-2.088502640E-1,1.783775072E0
1.728164333E0,-1.266126549E0,-1.582127917E-1,-9.304089546E-2,1.279360908E0
1.738110333E0,-7.930908226E-1,-1.815975612E-1,-1.585635881E-1,8.289228786E-1
1.748056333E0,-3.133451240E-1,-3.957775623E-1,-1.532946986E-1,5.275645080E-1
1.758002333E0,2.413636152E-1,-4.054307306E-1,-3.645288724E-1,5.962480783E-1
1.767948333E0,7.077508564E-1,-1.359734917E-1,-8.795434409E-1,1.137100141E0
1.777894333E0,5.793787085E-1,9.453661323E-2,-1.275874735E0,1.404447648E0
1.787840333E0,2.242232517E-1,-5.956090808E-2,-1.390242764E0,1.409467457E0
1.797786333E0,-1.291163888E-1,-4.188647085E-1,-1.217412518E0,1.293913415E0
1.807732333E0,-4.570752396E-1,-6.893487185E-1,-9.493896013E-1,1.259150525E0
1.817678333E0,-6.531748458E-1,-7.380302972E-1,-4.787355191E-1,1.095679605E0
1.827624333E0,-7.067954944E-1,-6.618252897E-1,1.613141549E-1,9.816286679E-1
1.837570333E0,-6.325327858E-1,-4.783232903E-1,3.913903598E-1,8.843513493E-1
1.847516333E0,-5.459814227E-1,-2.522617471E-1,1.862425163E-1,6.296173265E-1
1.857462333E0,-2.608291606E-1,-5.839614272E-3,-3.953226854E-1,4.736517473E-1
1.867408333E0,-9.034083400E-2,2.246903712E-1,-9.790554500E-1,1.008561750E0
1.877354333E0,-2.104892385E-1,3.426193553E-1,-1.259460431E0,1.322094671E0
1.887300333E0,-2.310741785E-1,3.024407977E-1,-1.170278698E0,1.230616895E0
1.897246333E0,-2.355048696E-1,2.794998318E-1,-7.037843245E-1,7.930290506E-1
1.907192333E0,-4.291367316E-1,2.957878357E-1,-2.110405578E-1,5.623049841E-1
1.917138333E0,-4.337480651E-1,2.632077348E-1,1.181097362E-1,5.209276393E-1
1.927084333E0,-4.779300286E-1,2.274701375E-1,4.460618627E-1,6.921928640E-1
1.937030333E0,-6.849349478E-1,1.997537506E-1,7.191104615E-1,1.012994225E0
1.946976333E0,-5.544043734E-1,6.696523726E-2,6.797756571E-1,8.797405846E-1
1.956922333E0,-4.852599519E-1,-8.939749539E-2,4.321086520E-1,6.558864385E-1
1.966868333E0,-6.296058159E-1,-1.274552679E-1,1.427416438E-1,6.580452154E-1
1.976814333E0,-7.407529069E-1,-1.364465314E-1,2.109324574E-2,7.535100863E-1
1.986760333E0,-6.516182439E-1,-2.023271102E-1,-3.832435439E-1,7.825715362E-1
1.996706333E0,-4.479975834E-1,1.136230946E-2,-6.678204399E-1,8.042481438E-1
2.006652333E0,-3.732896825E-1,3.533162516E-1,-8.881534660E-1,1.026155027E0
2.016598333E0,-4.498954800E-1,4.461460626E-1,-1.096318363E0,1.266240975E0
2.026544333E0,-3.768436933E-1,3.024600935E-1,-1.172606474E0,1.268266226E0
2.036490333E0,-3.471239406E-1,2.490492868E-1,-1.088507726E0,1.169345820E0
2.046436333E0,-3.090815170E-1,3.396893156E-1,-5.288970280E-1,7.004657604E-1
2.056382333E0,-7.008575007E-2,5.839473939E-1,3.945532284E-1,7.082222965E-1
2.066328333E0,9.345513415E-2,7.166686642E-1,7.034429202E-1,1.008553310E0
2.076274333E0,3.663198745E-1,5.669776046E-1,3.500675386E-1,7.603953815E-1
2.086220333E0,6.488476869E-1,2.400077373E-1,-4.008996501E-1,7.995796172E-1
2.096166333E0,3.382848509E-1,-5.276819766E-2,-1.028090785E0,1.083601304E0
2.106112333E0,-4.382181884E-1,-6.913747787E-3,-9.361169335E-1,1.033633346E0
2.116058333E0,-1.102494192E0,1.816788375E-1,-2.227450025E-1,1.139348928E0
2.126004333E0,-1.345995129E0,2.044607592E-1,4.987740002E-1,1.449925030E0
2.135950333E0,-1.264599987E0,-8.298368454E-3,7.369351868E-1,1.463678742E0
2.145897333E0,-8.535886739E-1,-2.178836274E-1,4.418740869E-1,9.855656284E-1
2.155842333E0,-2.966461339E-1,-3.607001156E-1,-5.145023525E-2,4.698410676E-1
2.165789333E0,1.273088682E-1,-4.735700887E-1,-2.771509322E-1,5.632839569E-1
2.175735333E0,2.873892241E-1,-6.652476650E-1,-4.495473149E-1,8.527835659E-1
2.185680333E0,3.094961212E-1,-7.533400619E-1,-3.931240958E-1,9.043537209E-1
2.195627333E0,3.979784542E-1,-6.244791234E-1,-4.032649219E-1,8.431984480E-1
2.205573333E0,3.233573113E-1,-2.981401706E-1,-5.976076591E-1,7.420124166E-1
2.215519333E0,-1.051548645E-2,-1.495910722E-1,-6.966062826E-1,7.125646478E-1
2.225465333E0,-2.739537843E-1,-2.847161329E-1,-7.174866897E-1,8.190855280E-1
2.235411333E0,-4.699770844E-1,-3.343356049E-1,-4.171906507E-1,7.118334044E-1
2.245357333E0,-6.116452890E-1,-3.614251703E-1,5.134209830E-2,7.123019896E-1
2.255303333E0,-5.322650607E-1,-4.710008222E-1,3.417002461E-1,7.886107580E-1
2.265249333E0,-3.876771951E-1,-5.495523173E-1,5.327801639E-1,8.579953730E-1
2.275195333E0,-2.643822212E-1,-3.764501756E-1,4.713979212E-1,6.586567344E-1
2.285141333E0,-4.171114940E-2,-3.776190341E-2,2.634205369E-1,2.693625078E-1
2.295087333E0,2.500097286E-1,1.629297405E-1,1.189054326E-1,3.212311732E-1
2.305033333E0,5.237030194E-1,1.694873929E-1,-1.137517333E-2,5.505635508E-1
2.314979333E0,5.296493819E-1,1.039009291E-1,-5.861837346E-2,5.429180274E-1
2.324925333E0,3.464205206E-1,-6.647114754E-3,-1.241002087E-1,3.680383445E-1
2.334871333E0,2.672203135E-2,-1.959881437E-1,-2.935191160E-1,3.539475821E-1
2.344817333E0,-3.499280825E-1,-3.903162628E-1,-1.513598549E-1,5.456246454E-1
2.354763333E0,-6.308895721E-1,-4.640981841E-1,2.994703756E-1,8.385053861E-1
2.364709333E0,-7.123081031E-1,-4.316917455E-1,9.021364975E-1,1.227839915E0
2.374655333E0,-6.482692511E-1,-4.625925261E-1,1.509261085E0,1.706491690E0
2.384601333E0,-6.120998369E-1,-5.873042804E-1,1.846010420E0,2.031587310E0
2.394547333E0,-6.086334613E-1,-7.004362088E-1,1.786917289E0,2.013484287E0
2.404493333E0,-4.194813705E-1,-7.565425819E-1,1.187062545E0,1.468822244E0
2.414439333E0,-2.255567458E-1,-5.945361167E-1,1.350496681E-1,6.500672677E-1
2.424385333E0,-5.609230321E-2,-1.943403983E-1,-7.893612492E-1,8.148654605E-1
2.434331333E0,1.552274226E-1,2.830455834E-1,-1.138073403E0,1.182971439E0
2.444277333E0,1.160967591E-1,5.888847828E-1,-9.162019747E-1,1.095303521E0
2.454223333E0,-3.903308078E-1,5.968562919E-1,-2.445106415E-1,7.539104897E-1
2.464169333E0,-9.334430748E-1,3.069834995E-1,5.417527163E-1,1.122074351E0
2.474115333E0,-1.215381634E0,-1.320950335E-1,1.139962054E0,1.671560678E0
2.484061333E0,-1.307602896E0,-3.445810962E-1,1.657992616E0,2.139509519E0
2.494007333E0,-1.253204202E0,-2.258340865E-1,1.938771234E0,2.319559378E0
2.503953333E0,-8.537572930E-1,-7.098870635E-2,1.397464076E0,1.639160381E0
2.513899333E0,-6.884526327E-2,-8.118274212E-3,6.703318191E-1,6.739067623E-1
2.523845333E0,8.505539690E-1,3.653837353E-1,6.884692973E-1,1.153662560E0
2.533791333E0,1.618186380E0,1.074033528E0,1.585016441E0,2.506861045E0
2.543737333E0,2.394424723E0,1.393133628E0,2.661671276E0,3.841690389E0
2.553683333E0,3.304956799E0,1.178820895E0,3.276401337E0,4.800746178E0
2.563629333E0,3.901774207E0,6.313805920E-1,3.044794879E0,4.989314509E0
2.573575333E0,4.413186891E0,-4.487562597E-2,2.430837235E0,5.038571427E0
2.583521333E0,5.086124521E0,-5.413170987E-1,2.024046443E0,5.500768206E0
2.593467333E0,5.762445644E0,-5.266230458E-1,2.070157000E0,6.145621338E0
2.603413333E0,6.867220908E0,1.173208737E-1,2.361689817E0,7.262924065E0
2.613359333E0,8.330357986E0,8.332890415E-1,2.368367922E0,8.700482827E0
2.623305250E0,9.896357528E0,1.314659901E0,2.406964808E0,1.026935746E1
2.633251250E0,1.136378880E1,1.595977632E0,2.524328367E0,1.174968401E1
2.643197250E0,1.268594132E1,1.575946240E0,2.772358484E0,1.308062252E1
2.653143250E0,1.388192731E1,1.307445606E0,3.215479782E0,1.430931969E1
2.663089250E0,1.476063284E1,9.539492601E-1,3.598922642E0,1.522296112E1
2.673035250E0,1.532798818E1,2.789244658E-1,4.064428836E0,1.586015770E1
2.682981250E0,1.591296702E1,-1.106000841E-2,4.765074960E0,1.661109813E1
2.692927250E0,1.631774754E1,8.051364523E-1,5.871659353E0,1.736068872E1
2.702873250E0,1.749084401E1,2.121962162E0,6.423015536E0,1.875333240E1
2.712819250E0,1.904244595E1,2.940098729E0,5.923993687E0,2.015819014E1
2.722765250E0,2.007058410E1,3.082522284E0,5.508052002E0,2.103969882E1
2.732711250E0,1.964670774E1,2.695619625E0,5.941650524E0,2.070175599E1
2.742657250E0,1.810140208E1,1.890686072E0,6.750177777E0,1.941134594E1
2.752603250E0,1.638812346E1,5.530495369E-1,6.841356919E0,1.776740326E1
2.762549250E0,1.482709112E1,-3.802613908E-1,6.221243327E0,1.608387697E1
2.772495250E0,1.281786854E1,-4.305486149E-1,5.510481520E0,1.395881559E1
2.782441250E0,1.055888331E1,-3.947104454E-1,5.693787053E0,1.200270903E1
2.792387250E0,8.287781485E0,-7.326239616E-1,6.485417022E0,1.054915607E1
2.802333250E0,4.695961456E0,-1.269269720E0,6.886769904E0,8.431530070E0
2.812279250E0,-3.891894313E-1,-2.076342770E0,5.086008747E0,5.507281787E0
2.822225250E0,-5.127060294E0,-3.017466747E0,1.828723712E0,6.223831877E0
2.832171250E0,-8.248351371E0,-3.702010224E0,-6.032665944E-1,9.061131862E0
2.842117250E0,-1.020687508E1,-3.022585984E0,-9.626581031E-1,1.068845338E1
2.852063250E0,-1.155743104E1,-1.110949924E0,-1.380206019E-1,1.161152323E1
2.862009250E0,-1.325463450E1,-6.877705550E-1,-4.594022852E-1,1.328041470E1
2.871955250E0,-1.534819264E1,-1.213321221E0,-1.169874655E0,1.544045895E1
2.881902250E0,-1.704356826E1,-1.611253483E0,4.194956231E-1,1.712469952E1
2.891848250E0,-1.931144009E1,-2.418613046E0,3.761282279E0,1.982242800E1
2.901794250E0,-2.123825202E1,-3.829900525E0,7.706513870E0,2.291553715E1
2.911740250E0,-2.126620171E1,-4.947412194E0,9.310491078E0,2.373633220E1
2.921686250E0,-1.921425586E1,-4.509268046E0,7.545108499E0,2.112935846E1
2.931632250E0,-1.663731892E1,-2.595870219E0,4.062340211E0,1.732170694E1
2.941578250E0,-1.386376702E1,-3.497523737E-1,1.276422034E0,1.392679489E1
2.951524250E0,-1.204143081E1,2.608302569E-1,-4.849195343E-1,1.205401325E1
2.961470250E0,-1.126853064E1,-3.646475708E-1,-6.572130060E-1,1.129356806E1
2.971416250E0,-1.052806381E1,-1.154017591E0,1.005854409E0,1.063877941E1
2.981362250E0,-8.941723559E0,-1.667232386E0,2.754315730E0,9.503701341E0
2.991308250E0,-6.072738082E0,-1.952250820E0,2.743864417E0,6.943934261E0
3.001254250E0,-2.838151647E0,-1.756605324E0,1.361296708E0,3.604704670E0
3.011200250E0,-5.752933685E-1,-7.931736338E-1,1.044254243E-1,9.853890311E-1
3.021146250E0,-4.659654924E-1,2.547760499E-1,-1.135730424E0,1.253761649E0
3.031092250E0,-1.961310643E0,5.665431565E-1,-2.129219141E0,2.949794016E0
3.041038250E0,-2.967522462E0,8.179611504E-2,-1.886607639E0,3.517409352E0
3.050984250E0,-2.905204007E0,-6.271185565E-1,-9.737800920E-1,3.127576646E0
3.060930250E0,-2.570186325E0,-7.515285945E-1,-4.746711560E-1,2.719552478E0
3.070876250E0,-2.340802832E0,-3.513574344E-1,-4.378102720E-1,2.407174231E0
3.080822250E0,-2.049880611E0,5.283777952E-2,-8.080436879E-1,2.204027439E0
3.090768250E0,-1.728191364E0,4.563903844E-1,-8.866198144E-1,1.995252432E0
3.100714250E0,-1.346790935E0,8.401624435E-1,-5.695223860E-1,1.686438408E0
3.110660250E0,-6.997434600E-1,1.161527755E0,-2.167282176E-1,1.373229316E0
3.120606250E0,-1.703788009E-1,1.235925388E0,8.074884217E-2,1.250224330E0
3.130552250E0,-1.606744695E-1,1.114865804E0,4.153036811E-1,1.200507890E0
3.140498250E0,-6.927170071E-1,7.977572662E-1,5.800899126E-1,1.205312331E0
3.150444250E0,-1.651698673E0,4.198523033E-1,4.957901660E-1,1.774878123E0
3.160390250E0,-2.655860313E0,9.342505753E-2,2.225397287E-1,2.666804488E0
3.170336250E0,-3.101385986E0,-2.468764615E-1,4.069450863E-1,3.137697775E0
3.180282250E0,-2.891849844E0,-4.470915574E-1,8.658691424E-1,3.051625100E0
3.190228250E0,-2.436018015E0,-5.840462118E-1,7.264931560E-1,2.608272618E0
3.200174250E0,-1.790242747E0,-4.645197684E-1,2.579651213E-1,1.867429708E0
3.210120250E0,-1.185168705E0,-2.987091047E-1,-2.284331739E-1,1.243396037E0
3.220066250E0,-6.942956822E-1,-9.074469388E-2,-6.154340655E-1,9.322232473E-1
3.230012250E0,-2.678870422E-1,8.813742042E-2,-7.085135525E-1,7.625766364E-1
3.239958250E0,-3.905731018E-1,-7.474027991E-2,-7.295207711E-1,8.308634140E-1
3.249904250E0,-8.327027120E-1,-5.081435055E-1,-7.609320867E-1,1.237182795E0
3.259850250E0,-1.286965148E0,-8.762064350E-1,-5.412877896E-1,1.648335367E0
3.269796250E0,-1.716896297E0,-9.097963500E-1,-7.662125610E-2,1.944565018E0
3.279742250E0,-1.810094483E0,-8.230762947E-1,2.505830846E-1,2.004167784E0
3.289688250E0,-1.782926857E0,-7.073271525E-1,2.198949965E-1,1.930671823E0
3.299634250E0,-1.608258393E0,-5.545879394E-1,1.893169823E-1,1.711696165E0
3.309580250E0,-1.228809765E0,-4.398182058E-1,9.710639141E-2,1.308756335E0
3.319526250E0,-9.104426866E-1,-2.455947518E-1,2.290371182E-1,9.704023234E-1
3.329472250E0,-6.883017746E-1,-6.932692766E-2,4.778817525E-1,8.407951743E-1
3.339418250E0,-7.050028112E-1,-2.241237760E-3,5.315018895E-1,8.829089678E-1
3.349364250E0,-8.697473813E-1,-1.121583670E-1,3.900086993E-1,9.597639252E-1
3.359310250E0,-8.662417562E-1,-2.292126077E-1,2.280512776E-1,9.246191567E-1
3.369256250E0,-7.402602059E-1,-1.409570736E-1,1.651850116E-1,7.714532761E-1
3.379203250E0,-6.406640701E-1,5.450306654E-2,2.351060164E-1,6.846136676E-1
3.389149250E0,-6.770720507E-1,1.473638678E-1,3.504195410E-1,7.764898751E-1
3.399095250E0,-6.890640322E-1,2.567845684E-1,4.244879027E-1,8.490804053E-1
3.409041250E0,-6.974785410E-1,1.702855378E-1,5.335420561E-1,8.945057882E-1
3.418987250E0,-8.758814760E-1,-1.498939580E-1,4.483977523E-1,9.953376828E-1
3.428933250E0,-1.124256944E0,-5.645872629E-1,2.477342480E-1,1.282218668E0
3.438879250E0,-1.312593202E0,-9.509589940E-1,1.268565130E-1,1.625827942E0
3.448825250E0,-1.373404245E0,-1.134338202E0,2.542420529E-2,1.781462536E0
3.458771250E0,-1.186113615E0,-1.035658836E0,-2.157395996E-2,1.574776228E0
3.468717250E0,-7.776095152E-1,-5.778089869E-1,-6.857037105E-2,9.712063011E-1
3.478663250E0,-3.719547632E-1,2.059272408E-2,-2.150648309E-1,4.301479834E-1
3.488609250E0,-2.242718932E-1,3.836475134E-1,-4.227560306E-1,6.133563059E-1
3.498555250E0,-2.046162951E-1,3.815822768E-1,-5.161348951E-1,6.736973298E-1
3.508501250E0,-3.730700099E-1,1.339795911E-1,-3.512879256E-1,5.296555200E-1
3.518447250E0,-6.884187189E-1,-1.198860472E-1,2.988259759E-1,7.599933952E-1
3.528393250E0,-6.898623964E-1,-1.510119456E-1,1.183267118E0,1.377982513E0
3.538339250E0,-4.118438105E-1,-3.170945048E-2,1.509478016E0,1.564974343E0
3.548285250E0,1.082588955E-1,3.892509001E-1,1.376866674E0,1.434920935E0
3.558231250E0,7.642169063E-1,9.479465085E-1,1.029997489E0,1.594843218E0
3.568177250E0,1.260722260E0,1.300535367E0,4.678666415E-1,1.870751734E0
3.578123250E0,1.259861257E0,1.364495135E0,-1.072877826E-1,1.860270956E0
3.588069250E0,1.148852380E0,1.284435058E0,-4.169930148E-1,1.772997006E0
3.598015250E0,9.081790102E-1,9.919333577E-1,-5.642644235E-1,1.458463315E0
3.607961250E0,4.070685722E-1,5.725400609E-1,-4.841950643E-1,8.532009166E-1
3.617907250E0,-1.025243483E-2,2.580493212E-1,3.396947242E-2,2.604774263E-1
3.627853750E0,-2.365126555E-1,1.794954872E-1,7.892315141E-1,8.432338045E-1
3.637799750E0,-4.178747018E-1,5.057081401E-2,1.363160216E0,1.426668303E0
3.647745750E0,-3.477385561E-1,-1.279405868E-1,1.732556895E0,1.771734825E0
3.657691750E0,-1.495960972E-1,-1.844843316E-1,2.011538079E0,2.025512010E0
3.667637750E0,1.094288137E-2,-2.498526943E-1,1.977484480E0,1.993236309E0
3.677583750E0,2.120770865E-1,-3.387081528E-1,1.743108196E0,1.788330530E0
3.687529750E0,3.272502413E-1,-4.604442590E-1,1.301196687E0,1.418525450E0
3.697475750E0,1.690391673E-1,-6.774326777E-1,7.684633005E-1,1.038279884E0
3.707421750E0,-1.082187141E-2,-9.096513391E-1,3.753451250E-1,9.841070238E-1
3.717367750E0,-1.140990579E-1,-1.002834907E0,4.766680167E-1,1.116202868E0
3.727313750E0,-3.107021094E-1,-9.340734047E-1,6.572257968E-1,1.183627760E0
3.737259750E0,-4.870229240E-1,-8.531204581E-1,6.685671294E-1,1.188270950E0
3.747205750E0,-4.351157288E-1,-8.017456520E-1,5.155823332E-1,1.047829628E0
3.757151750E0,-5.215257721E-2,-7.314755684E-1,1.618298793E-1,7.509762369E-1
3.767097750E0,4.273256661E-1,-5.741813743E-1,-6.964793980E-2,7.191260745E-1
3.777043750E0,6.460957680E-1,-3.510083556E-1,-1.736365040E-1,7.555105841E-1
3.786989750E0,6.146237145E-1,-2.539393133E-1,-1.227898111E-1,6.762579559E-1
3.796935750E0,6.545963039E-1,-3.357225645E-1,7.858073115E-2,7.398519397E-1
3.806882750E0,9.610284110E-1,-3.477187121E-1,2.241401482E-1,1.046289977E0
3.816828750E0,1.001940721E0,-1.691406530E-1,2.630639664E-1,1.049617273E0
3.826774750E0,8.757289367E-1,-7.462333560E-2,2.122510046E-1,9.041682928E-1
3.836720750E0,8.168635549E-1,-2.183788866E-1,5.851484120E-2,8.475726471E-1
3.846666750E0,7.496050798E-1,-4.195283675E-1,7.321649551E-2,8.621325200E-1
3.856612750E0,5.446456628E-1,-6.101978838E-1,4.859194082E-1,9.513663998E-1
3.866558750E0,4.291663331E-1,-6.708662546E-1,1.083095616E0,1.344373976E0
3.876504750E0,4.396441781E-1,-6.713392943E-1,1.257418583E0,1.491671862E0
3.886450750E0,8.029205038E-1,-4.671071613E-1,1.124934125E0,1.458885609E0
3.896396750E0,1.092115823E0,-2.037111461E-1,8.519831747E-1,1.400032333E0
3.906342750E0,1.102919577E0,-1.981761718E-1,5.286491060E-1,1.239021899E0
3.916288750E0,1.335324253E0,-3.322177434E-1,6.333060801E-1,1.514772617E0
3.926234750E0,1.597734428E0,-4.178940707E-1,9.224310136E-1,1.891631500E0
3.936180750E0,1.708908855E0,-4.247756588E-1,1.213693689E0,2.138657571E0
3.946126750E0,1.994641234E0,-2.037988544E-1,1.748160775E0,2.660111599E0
3.956072750E0,2.676054257E0,1.559709692E-1,2.327846133E0,3.550276179E0
3.966018750E0,3.465510231E0,3.172763532E-1,2.095788270E0,4.062358172E0
3.975964750E0,4.123009166E0,3.456756949E-1,1.348392488E0,4.351650097E0
3.985910750E0,4.548158462E0,3.364955664E-1,7.340658849E-1,4.619288623E0
3.995856750E0,5.008777553E0,2.042730635E-1,5.647065461E-1,5.044648010E0
4.005802750E0,5.183904585E0,6.954678297E-3,9.828087777E-1,5.276251341E0
4.015748750E0,5.079001443E0,1.262291068E-1,1.537169845E0,5.308020401E0
4.025694750E0,5.190480364E0,4.266105151E-1,1.965700001E0,5.566602144E0
4.035640750E0,5.598090352E0,4.915502769E-1,1.846795701E0,5.915309935E0
4.045586750E0,6.131158783E0,4.211620796E-1,1.696613476E0,6.375498632E0
4.055532750E0,6.407441477E0,2.595076168E-1,1.853228223E0,6.675110886E0
4.065478750E0,6.354283855E0,2.079766899E-1,2.432206653E0,6.807040974E0
4.075424750E0,5.906327494E0,1.368464810E-1,3.164758109E0,6.702173179E0
4.085370750E0,6.204317976E0,8.026239038E-2,3.374235780E0,7.062964724E0
4.095316750E0,7.816261430E0,-2.560671151E-2,2.908416760E0,8.339873290E0
4.105262750E0,9.847211680E0,5.819137323E-1,2.584164094E0,1.019725971E1
4.115208750E0,1.159378552E1,1.374000369E0,3.459979350E0,1.217683033E1
4.125154750E0,1.320378361E1,1.821067368E0,4.580228101E0,1.409378151E1
4.135100750E0,1.488334719E1,2.140182670E0,4.492401168E0,1.569318558E1
4.145046750E0,1.711721044E1,2.349693085E0,3.557725500E0,1.764022000E1
4.154992750E0,2.039013911E1,2.696102021E0,1.552619358E0,2.062613308E1
4.164939750E0,2.383009116E1,2.876193339E0,-1.002268896E0,2.402395213E1
4.174885750E0,2.530680314E1,2.440671083E0,-1.878943108E0,2.549355973E1
4.184831750E0,2.439700679E1,1.440437018E0,-1.093129950E0,2.446392716E1
4.194777750E0,2.267265120E1,8.171466333E-1,6.227050781E-1,2.269591599E1
4.204723750E0,1.994697630E1,-1.197480530E-1,7.899214125E-1,1.996297019E1
4.214669750E0,1.622803956E1,-1.934288759E0,7.115371478E-1,1.635839313E1
4.224615750E0,1.215893295E1,-3.475673862E0,2.792619671E0,1.295062484E1
4.234561750E0,9.700865228E0,-4.122310424E0,5.233752683E0,1.176827925E1
4.244507750E0,1.024211041E1,-2.760157683E0,5.935903881E0,1.215542064E1
4.254453750E0,1.247576199E1,-3.165776110E-1,3.895548384E0,1.307364355E1
4.264399750E0,1.171238577E1,3.863343090E-1,2.295137211E-1,1.172100299E1
4.274345750E0,3.499436946E0,-1.021683991E0,1.136568915E0,3.818597388E0
4.284291750E0,-9.378899993E0,-4.284879976E0,6.206420050E0,1.203509914E1
4.294237750E0,-2.056436743E1,-8.385115407E0,1.015594934E1,2.442021038E1
4.304183750E0,-2.721060042E1,-1.140180623E1,1.163994461E1,3.171602546E1
4.314129750E0,-3.036872136E1,-1.082965150E1,1.177449606E1,3.432461720E1
4.324075750E0,-3.216691091E1,-6.787404660E0,1.218487704E1,3.506066525E1
4.334021750E0,-3.223689272E1,-1.934187017E0,1.491007481E1,3.557061516E1
4.343967750E0,-2.938421630E1,1.422488989E0,1.633841394E1,3.365114281E1
4.353913750E0,-2.503810487E1,1.908600186E0,1.287738267E1,2.822014236E1
4.363859750E0,-2.223109754E1,6.508249229E-1,8.352596701E0,2.375733871E1
4.373805750E0,-2.000219974E1,-1.092653986E0,5.891103099E0,2.088030132E1
4.383751750E0,-1.689035601E1,-2.790367323E0,3.599563497E0,1.749363122E1
4.393697750E0,-1.277941024E1,-3.814371489E0,6.789552927E-1,1.335379108E1
4.403643750E0,-8.923052230E0,-4.223828028E0,-2.016862553E0,1.007617581E1
4.413589750E0,-6.486715103E0,-4.224399886E0,-3.118382673E0,8.345498051E0
4.423535750E0,-5.038281434E0,-4.331693954E0,-2.252008331E0,7.015653486E0
4.433481750E0,-3.845364656E0,-4.761081896E0,-8.866630838E-1,6.183922831E0
4.443427750E0,-2.622259581E0,-4.511302292E0,5.507738006E-1,5.247041591E0
4.453373750E0,-1.724939727E0,-3.317860435E0,1.558533232E0,4.051251753E0
4.463319750E0,-1.182401730E0,-1.948550118E0,1.574462802E0,2.770172292E0
4.473265750E0,-8.462172353E-1,-8.737026572E-1,9.347610372E-1,1.534020254E0
4.483212750E0,-8.892330082E-1,-1.216174078E-1,3.781230640E-1,9.739112836E-1
4.493158750E0,-1.431234816E0,1.490507895E-1,6.577662988E-1,1.582183851E0
4.503104750E0,-1.978538440E0,3.640593410E-2,1.452668954E0,2.454829290E0
4.513050750E0,-1.839817488E0,-1.732670331E-1,1.869031493E0,2.628350923E0
4.522996750E0,-1.230954377E0,1.727203184E-1,2.169657900E0,2.500499228E0
4.532942750E0,-3.827115203E-1,6.987241441E-1,2.087771153E0,2.234607779E0
4.542888750E0,4.204669918E-1,1.041610132E0,1.737195637E0,2.068717681E0
4.552834750E0,6.142343630E-1,1.139739860E0,1.388696761E0,1.898623052E0
4.562780750E0,2.591313484E-1,8.930581105E-1,1.008355848E0,1.371671739E0
4.572726750E0,-3.177083163E-1,3.072062784E-1,6.685916146E-1,8.014543149E-1
4.582672750E0,-1.295678231E0,-4.567102271E-1,7.971370228E-1,1.588330489E0
4.592618750E0,-2.208435611E0,-1.082283365E0,1.167454492E0,2.722402454E0
4.602564750E0,-2.709057112E0,-1.267626652E0,1.158666127E0,3.207549681E0
4.612510750E0,-3.701586008E0,-8.520550954E-1,1.338418453E0,4.027294479E0
4.622456750E0,-3.652597743E0,-3.693627656E-1,1.214698168E0,3.866961438E0
4.632402708E0,-2.553212150E0,-1.100282264E-1,7.769557965E-1,2.671078210E0
4.642348708E0,-1.283830602E0,1.036921835E-1,2.763125145E-1,1.317316093E0
4.652294708E0,-3.363156183E-1,2.836414146E-1,-1.355513227E-1,4.603637782E-1
4.662240708E0,1.743337114E-1,2.407134962E-1,-4.048600423E-1,5.022418581E-1
4.672186708E0,1.105557914E-1,2.268772298E-1,-5.514906693E-1,6.064963468E-1
4.682132708E0,-1.964749244E-1,3.665180951E-1,-5.784065723E-1,7.123847787E-1
4.692078708E0,-5.053163767E-1,3.944566762E-1,-3.263710394E-1,7.193460678E-1
4.702024708E0,-7.666462782E-1,2.889787531E-1,2.491574603E-1,8.563496223E-1
4.711970708E0,-1.147687249E0,9.665389001E-2,9.572704786E-1,1.497629716E0
4.721916708E0,-1.754607476E0,-2.213510263E-1,1.526255432E0,2.336043518E0
4.731862708E0,-2.174993776E0,-3.409944141E-1,1.694886793E0,2.778401763E0
4.741808708E0,-1.978231608E0,-3.379211175E-1,1.438732554E0,2.469320218E0
4.751754708E0,-1.428146901E0,-5.496680921E-1,6.777051580E-1,1.673625664E0
4.761700708E0,-1.198252070E0,-6.173712480E-1,2.827888906E-2,1.348241438E0
4.771647708E0,-9.666537979E-1,-3.275844097E-1,-2.957562608E-1,1.062639580E0
4.781593708E0,-4.041934597E-1,-2.063774765E-2,-3.538799963E-1,5.376144728E-1
4.791539708E0,1.357840419E-1,3.835364163E-2,-8.782591000E-3,1.413698757E-1
4.801485708E0,5.809080112E-1,-1.893322581E-1,5.539254498E-1,8.247025072E-1
4.811431708E0,7.785792759E-1,-5.694427907E-1,9.581966776E-1,1.359629234E0
4.821377708E0,7.044050065E-1,-7.427092391E-1,1.093025284E0,1.497500484E0
4.831323708E0,3.217807558E-1,-6.180349070E-1,1.058447190E0,1.267209712E0
4.841269708E0,-1.248148115E-1,-2.062564391E-1,9.820340216E-1,1.011192996E0
4.851215708E0,-3.117176977E-1,2.006390190E-1,7.684311408E-1,8.531766272E-1
4.861161708E0,-2.811145404E-1,2.470132864E-1,4.586387119E-1,5.919378486E-1
4.871107708E0,-6.525083363E-2,1.798463202E-1,2.680732761E-1,3.293412387E-1
4.881053708E0,1.041568910E-1,-1.260513514E-1,1.885031960E-1,2.495416920E-1
4.890999708E0,8.613971919E-3,-4.138349336E-1,3.241621075E-1,5.257514857E-1
4.900945708E0,-1.785331817E-1,-2.981577122E-1,4.889062390E-1,5.998345013E-1
4.910891708E0,-3.382742894E-1,-1.085705155E-1,5.683598864E-1,6.702611522E-1
4.920837708E0,-4.606063731E-1,-5.996495068E-2,6.349514866E-1,7.867130459E-1
4.930783708E0,-3.774893720E-1,-4.833893180E-3,7.508865702E-1,8.404476390E-1
4.940729708E0,-1.903650226E-1,-1.945924133E-1,7.422421197E-1,7.905873850E-1
4.950675708E0,-1.525265206E-1,-6.379581249E-1,6.772426432E-1,9.428215666E-1
4.960621708E0,-2.349020948E-1,-9.597233856E-1,6.584830213E-1,1.187370145E0
4.970567708E0,-3.547792250E-1,-1.143055816E0,5.335379630E-1,1.310384544E0
4.980513708E0,-5.381892769E-1,-1.339041620E0,3.431730866E-1,1.483390686E0
4.990459708E0,-6.221191871E-1,-1.260374935E0,1.795475274E-1,1.416973738E0
5.000405708E0,-4.093289231E-1,-8.408629400E-1,1.138874618E-1,9.421098689E-1
5.010351708E0,9.874003038E-2,-4.269917536E-1,7.502737820E-2,4.446354222E-1
5.020297708E0,6.701860772E-1,-2.489399439E-1,6.631915648E-2,7.179963122E-1
5.030244708E0,7.481421795E-1,-1.888527864E-1,-4.710177791E-1,9.040131880E-1
5.040190708E0,2.491583374E-1,-2.401626885E-2,-1.405737886E0,1.427850014E0
5.050136708E0,-1.298146194E-1,1.342397922E-1,-1.675991516E0,1.686362866E0
5.060082708E0,-1.286641797E-1,2.106763494E-1,-4.984663635E-1,5.562442907E-1
5.070028708E0,-1.045952860E-1,6.043214321E-2,6.672456586E-1,6.780921669E-1
5.079974708E0,-2.054113702E-1,-1.841662431E-1,9.639667100E-1,1.002667868E0
5.089920708E0,-1.025879368E-2,-5.736586332E-2,6.323377812E-1,6.350174444E-1
5.099866708E0,4.433861768E-1,2.334477460E-1,2.766943377E-1,5.724062443E-1
5.109812708E0,6.282860993E-1,3.675530523E-1,2.835677032E-1,7.811845564E-1
5.119758708E0,2.931267679E-1,3.634857291E-1,4.276442663E-1,6.331862252E-1
5.129704708E0,-4.857204567E-1,1.232429338E-1,2.553017145E-1,5.623985670E-1
5.139650708E0,-1.057173666E0,-1.545500958E-1,-9.073595960E-2,1.072256922E0
5.149596708E0,-1.476986062E0,-4.832893306E-1,-3.778044273E-1,1.599310036E0
5.159542708E0,-1.493918137E0,-2.913609087E-2,-6.372593826E-1,1.624419845E0