"Time (s)","Linear Acceleration x (m/s^2)","Linear Acceleration y (m/s^2)","Linear Acceleration z (m/s^2)","Absolute acceleration (m/s^2)"
4.644208355E-3,-2.275902429E-1,-8.770589590E-2,-1.231487936E-1,2.732311626E-1
1.459020842E-2,-2.177747961E-1,-3.012719393E-2,9.769184388E-2,2.405768193E-1
2.453620848E-2,-7.008709311E-2,4.606904268E-2,2.195987619E-2,8.669944334E-2
3.448220855E-2,-4.452150397E-2,1.404828644E-1,-6.545256257E-2,1.612502324E-1
4.442820838E-2,1.410335533E-1,4.745372182E-1,4.813354835E-3,4.950749469E-1
5.437520845E-2,7.498897661E-1,9.130187505E-1,1.417808732E-1,1.189974670E0
6.432120851E-2,9.341365546E-1,9.193337435E-1,1.288661280E-1,1.316963216E0
7.426720834E-2,6.337362159E-1,3.759432220E-1,1.590284052E-1,7.538202247E-1
8.421320841E-2,1.212478638E-1,-7.937536776E-2,2.122895231E-1,2.570376142E-1
9.415920847E-2,-4.267899150E-1,-1.581186515E-1,2.674235773E-1,5.278887281E-1
1.041052085E-1,-7.530602726E-1,-3.183259284E-1,4.357719326E-1,9.264601169E-1
1.140512084E-1,-7.456786014E-1,-3.277352679E-1,7.322433078E-1,1.095274963E0
1.239972084E-1,-6.947945959E-1,-1.253625494E-1,8.308723873E-1,1.090322990E0
1.339432085E-1,-5.266892655E-1,9.329992712E-2,7.831952872E-1,9.484204325E-1
1.438902083E-1,-1.800802636E-1,2.028668082E-1,6.723765904E-1,7.250338768E-1
1.538362084E-1,6.181355248E-2,2.262597638E-1,4.598523746E-1,5.162156550E-1
1.637822085E-1,6.501222155E-3,2.547234249E-1,-2.801159821E-2,2.563414495E-1
1.737282085E-1,-8.620279603E-2,1.967821956E-1,-4.553431481E-1,5.034794306E-1
1.836742084E-1,-4.982742277E-2,-2.897646189E-2,-5.106181202E-1,5.138611409E-1
1.936202084E-1,1.742880300E-1,-2.094466799E-1,-3.408903337E-1,4.364062886E-1
2.035662085E-1,2.170173761E-2,-2.952867293E-1,-8.780113243E-2,3.088272281E-1
2.135122085E-1,-3.876547930E-1,-3.954050946E-1,3.881521352E-1,6.762274081E-1
2.234582084E-1,-4.403230764E-1,-2.049168420E-1,5.445862770E-1,7.296913983E-1
2.334052084E-1,-5.005835672E-1,-1.036360502E-2,3.364019378E-1,6.032060808E-1
2.433512085E-1,-4.606405428E-1,2.707553208E-2,2.723953917E-1,5.358377026E-1
2.532972083E-1,-2.158231783E-1,1.552470839E-1,3.530466219E-1,4.419538648E-1
2.632432084E-1,-1.235670522E-1,2.134812587E-1,3.901835310E-1,4.616126646E-1
2.731892085E-1,-1.301387744E-1,1.033267325E-1,3.550810144E-1,3.920395912E-1
2.831352085E-1,-6.170880966E-2,-1.066836190E-1,3.173938823E-1,3.404823758E-1
2.930812084E-1,-7.802349150E-2,-5.793245852E-2,3.939678490E-1,4.057764175E-1
3.030272084E-1,-1.395892088E-1,9.407760680E-2,3.032472018E-1,3.468351319E-1
3.129742085E-1,-1.324992771E-1,5.764243662E-2,3.111661591E-2,1.478071471E-1
3.229202083E-1,-5.080612790E-2,4.437218070E-2,-1.044640160E-1,1.243498439E-1
3.328662084E-1,2.754383558E-1,3.134785867E-1,-1.772126611E-1,4.533645767E-1
3.428122085E-1,7.163368347E-1,6.083758914E-1,-3.328749704E-1,9.970283005E-1
3.527582085E-1,9.777741788E-1,6.217034501E-1,-4.689847022E-1,1.250001670E0
3.627042084E-1,9.371936982E-1,4.343855578E-1,-4.404221501E-1,1.122940119E0
3.726502084E-1,7.016278714E-1,2.198313349E-1,-1.694493129E-1,7.545333362E-1
3.825962085E-1,3.552242346E-1,1.767320931E-2,3.538267136E-2,3.574192673E-1
3.925432086E-1,1.185847494E-1,-9.673107326E-2,-9.186618984E-2,1.784898881E-1
4.024892084E-1,-3.067846759E-2,-1.092464536E-1,-3.086604810E-1,3.288574897E-1
4.124352084E-1,-7.366496782E-2,-1.113532054E-1,-3.641026103E-1,3.878102303E-1
4.223812085E-1,-6.422381588E-2,-4.755482018E-2,1.044722021E-2,8.059344799E-2
4.323272083E-1,1.360189995E-1,-2.144758701E-2,5.340805846E-1,5.515462248E-1
4.422732084E-1,4.319347339E-1,-6.456729412E-2,6.572176107E-1,7.890953920E-1
4.522192085E-1,2.256386251E-1,1.920593995E-1,4.043922285E-1,5.013309053E-1
4.621652085E-1,4.473700128E-2,3.332369131E-1,1.578075796E-1,3.714181898E-1
4.721112084E-1,2.628943423E-1,2.057529938E-1,-1.039057530E-2,3.339995415E-1
4.820582084E-1,1.715732957E-1,-8.742464483E-2,-1.318576366E-1,2.333814488E-1
4.920042085E-1,-2.156754264E-1,-1.901537919E-1,3.365185898E-2,2.894940444E-1
5.019502083E-1,-4.179674898E-1,-2.164001888E-1,3.001474466E-1,5.582242865E-1
5.118962084E-1,-4.309788238E-1,-1.800889796E-1,5.178855515E-1,6.974096583E-1
5.218419584E-1,-3.712180871E-1,2.901622295E-2,5.752519995E-1,6.852442428E-1
5.317879585E-1,-1.684414174E-1,1.565656310E-1,3.354015523E-1,4.066687955E-1
5.417339585E-1,-5.079372997E-2,2.796892816E-1,-5.416334331E-2,2.893782386E-1
5.516799584E-1,-2.047451897E-2,3.746878248E-1,-1.746738732E-1,4.139095722E-1
5.616259584E-1,-1.990698821E-1,3.124073768E-1,-4.256772995E-2,3.728796035E-1
5.715729585E-1,-2.321887491E-1,1.915226251E-1,2.675346379E-1,4.027000293E-1
5.815189586E-1,-3.086749528E-1,3.013491225E-1,6.767503077E-1,8.025475058E-1
5.914649584E-1,-6.957890611E-1,2.768136209E-1,8.622836298E-1,1.142051337E0
6.014109585E-1,-7.735506704E-1,-3.993005097E-2,5.681734333E-1,9.606227663E-1
6.113569585E-1,-6.298673326E-1,-2.718107432E-1,2.986436158E-1,7.481991353E-1
6.213029583E-1,-5.179766584E-1,-2.371578044E-1,2.437428655E-1,6.196404016E-1
6.312489584E-1,-1.728985306E-1,-3.885533273E-2,3.249595946E-1,3.701383213E-1
6.411949585E-1,2.901048537E-1,2.769276416E-1,4.457589404E-1,5.996255313E-1
6.511419585E-1,5.896311799E-1,4.213094294E-1,4.608091253E-1,8.587849635E-1
6.610879584E-1,5.116532236E-1,2.157564104E-1,3.501803899E-1,6.564801256E-1
6.710339584E-1,-5.332434095E-2,-6.279383361E-2,7.950751483E-2,1.144901559E-1
6.809799585E-1,-3.313835284E-1,-2.403117925E-1,-2.157551678E-1,4.627257211E-1
6.909259583E-1,-2.232697718E-1,-2.556338364E-1,-2.896453357E-1,4.461977922E-1
7.008719584E-1,-6.773188032E-2,-1.082307923E-1,-2.949847206E-3,1.277114467E-1
7.108179585E-1,1.824424474E-2,3.236726224E-2,2.826199792E-1,2.850518282E-1
7.207639585E-1,1.766824649E-1,7.165470421E-2,4.383657575E-1,4.780330818E-1
7.307109584E-1,3.620075530E-1,1.764204365E-1,2.947037619E-1,4.990229916E-1
7.406569584E-1,3.364448418E-1,2.316321856E-1,4.426700391E-2,4.108627126E-1
7.506029585E-1,2.564634649E-1,1.756579596E-1,5.103625238E-2,3.150141690E-1
7.605489586E-1,7.285345651E-2,1.017058843E-1,2.180116449E-1,2.513578929E-1
7.704949584E-1,-2.081307275E-1,-9.283039570E-3,3.600592607E-1,4.159894780E-1
7.804409584E-1,-3.638753729E-1,-3.730932891E-2,4.033743379E-1,5.445256005E-1
7.903869585E-1,-3.818753685E-1,6.311367631E-2,3.540038477E-1,5.245291768E-1
8.003329583E-1,-3.900790852E-1,1.609335011E-1,2.281331752E-1,4.796936836E-1
8.102799584E-1,-2.948567214E-1,1.399133456E-1,6.415623486E-2,3.326142705E-1
8.202259585E-1,-2.154676493E-1,1.897076494E-1,8.038459718E-2,2.981224305E-1
8.301719585E-1,-9.056500163E-2,4.576083595E-1,1.949286282E-1,5.055735360E-1
8.401179584E-1,1.057809551E-1,7.319527012E-1,2.412818456E-1,7.779211376E-1
8.500639584E-1,3.178827826E-1,9.162458289E-1,2.600397134E-1,1.004079944E0
8.600099585E-1,6.021716667E-1,1.092286781E0,1.543735830E-1,1.256794467E0
8.699559583E-1,5.865437038E-1,1.074155150E0,7.944144130E-2,1.226439459E0
8.799019584E-1,3.878510767E-1,7.532184398E-1,-7.765986778E-2,8.507629111E-1
8.898479585E-1,3.947322263E-1,3.732143265E-1,-4.461910862E-1,7.029857391E-1
8.997949585E-1,3.121069761E-1,2.314520913E-1,-3.503563180E-1,5.231924929E-1
9.097409584E-1,2.137078018E-1,3.623887914E-1,1.513844132E-3,4.207124344E-1
9.196869584E-1,4.114174023E-1,6.679724675E-1,5.124230826E-1,9.370319695E-1
9.296329585E-1,7.768688191E-1,9.692344666E-1,8.657353143E-1,1.514080000E0
9.395789586E-1,8.894402189E-1,9.706512469E-1,6.728023408E-1,1.478489342E0
9.495249584E-1,7.810296978E-1,5.939297605E-1,9.213172652E-2,9.855192561E-1
9.594709584E-1,4.919932400E-1,1.510177928E-1,-3.245491201E-1,6.084372222E-1
9.694169585E-1,2.523023122E-1,-1.958723688E-1,-4.285570532E-1,5.344937693E-1
9.793639584E-1,7.516684343E-2,-5.182773149E-1,-4.130881711E-1,6.670106945E-1
9.893099584E-1,-1.754429648E-1,-7.215037268E-1,-2.377424528E-1,7.796597563E-1
9.992559585E-1,-4.211026207E-1,-7.868188798E-1,-2.790178020E-2,8.928549021E-1
1.009201959E0,-5.599092711E-1,-7.007268155E-1,1.247567779E-1,9.055830803E-1
1.019147958E0,-4.789921753E-1,-3.522128820E-1,2.548005351E-1,6.468467600E-1
1.029093958E0,-2.146803765E-1,-2.091665983E-2,5.154413788E-1,5.587530632E-1
1.039039959E0,-1.186398046E-1,1.781588137E-1,5.142041445E-1,5.569756443E-1
1.048985958E0,-1.943782956E-1,2.713751256E-1,1.021666449E-1,3.490922571E-1
1.058932958E0,-2.915960582E-1,2.305948895E-1,-3.130803913E-1,4.860263322E-1
1.068878958E0,-2.287479003E-1,3.263483083E-1,-4.513659086E-1,6.021295572E-1
1.078824959E0,8.419478908E-3,8.581297678E-1,-4.530586044E-1,9.704224261E-1
1.088770958E0,1.371945182E-1,1.305024274E0,-8.409184885E-1,1.558542459E0
1.098716958E0,3.173011308E-1,1.698210935E0,-1.316833311E0,2.172245464E0
1.108662958E0,3.103211268E-1,2.137192404E0,-1.518258196E0,2.639886081E0
1.118608959E0,4.924152628E-1,2.963601612E0,-1.225421523E0,3.244543914E0
1.128554958E0,7.335755228E-1,4.501788872E0,-4.812294296E-1,4.586482079E0
1.138501958E0,1.043900925E0,6.138337410E0,-3.432596254E-1,6.235923546E0
1.148447959E0,1.223264850E0,7.693590939E0,-4.026346651E-1,7.800630302E0
1.158393958E0,1.627480822E0,8.902669421E0,-3.349559945E-1,9.056401723E0
1.168339958E0,1.666864450E0,9.400487328E0,-3.416452092E-1,9.553236130E0
1.178285958E0,1.291323663E0,9.551119205E0,-4.303455703E-1,9.647621063E0
1.188231959E0,1.243885787E0,1.009068506E1,-2.109739727E-1,1.016925203E1
1.198177958E0,1.836678849E0,1.162591012E1,7.931011283E-1,1.179678705E1
1.208123958E0,2.438842658E0,1.425111699E1,1.973393767E0,1.459234635E1
1.218070959E0,2.452069791E0,1.689136875E1,3.611487724E0,1.744631274E1
1.228016958E0,1.053475960E0,1.876287771E1,4.415046890E0,1.930409362E1
1.237962958E0,-5.180048347E-3,1.997360452E1,4.473132253E0,2.046836135E1
1.247908958E0,-1.778613805E0,2.051258449E1,5.357666878E0,2.127520114E1
1.257854959E0,-4.226022780E0,2.035613171E1,5.839564571E0,2.159471882E1
1.267800958E0,-5.053057348E0,2.130354670E1,6.212345034E0,2.275890422E1
1.277746958E0,-4.330828274E0,2.215805412E1,6.310128606E0,2.344255018E1
1.287692958E0,-3.378039978E0,2.072467001E1,5.667106208E0,2.174946422E1
1.297639958E0,-2.735309648E0,1.759269315E1,4.500879630E0,1.836416861E1
1.307585958E0,-2.782722089E0,1.294316034E1,2.467608036E0,1.346692360E1
1.317531958E0,-2.542156819E0,7.068221869E0,6.636753488E-1,7.540741784E0
1.327477959E0,-2.719003810E0,1.223217634E0,1.645873348E-2,2.981528801E0
1.337423958E0,-1.357954586E0,-3.952944068E0,1.583504351E0,4.469596570E0
1.347369958E0,1.078719121E0,-8.582719136E0,4.780064882E0,9.883102903E0
1.357315958E0,1.882301895E0,-1.310752206E1,7.586639518E0,1.526130054E1
1.367261959E0,1.107586094E0,-1.768747418E1,7.853870137E0,1.938444649E1
1.377208958E0,-2.243101560E-1,-2.196202037E1,4.708174827E0,2.246213623E1
1.387154958E0,4.104753428E-1,-2.434553024E1,2.361105680E0,2.446319997E1
1.397100959E0,7.947094050E-1,-2.481386181E1,2.115266661E0,2.491653375E1
1.407046958E0,2.133888545E-1,-2.430758181E1,2.785303634E0,2.446757006E1
1.416992958E0,-3.354555660E-1,-2.340869169E1,2.598865163E0,2.355490346E1
1.426938958E0,-7.818414375E-1,-2.156037279E1,1.470049510E0,2.162456927E1
1.436884959E0,-1.670733261E0,-1.848972620E1,-3.670870292E-1,1.856868540E1
1.446831958E0,-2.389155943E0,-1.563887060E1,-1.210711536E0,1.586657374E1
1.456777958E0,-2.440236781E0,-1.289787716E1,-1.165168816E0,1.317830070E1
1.466723958E0,-2.503145951E0,-9.981966612E0,-1.333484427E0,1.037706981E1
1.476669958E0,-2.027144590E0,-7.357566074E0,-8.458921301E-1,7.678452136E0
1.486615958E0,-9.403447627E-1,-4.425614271E0,1.471650807E-1,4.526805442E0
1.496561958E0,-1.342850716E-1,-1.775246832E0,4.891535032E-1,1.846294923E0
1.506507959E0,2.305338227E-1,1.298894638E-1,1.157642280E0,1.187498532E0
1.516454583E0,7.043124743E-1,1.469271392E0,2.726504034E0,3.176261754E0
1.526401583E0,8.722154910E-1,2.187770820E0,4.031280386E0,4.668867376E0
1.536347583E0,5.468859138E-1,1.673255019E0,3.850283918E0,4.233621713E0
1.546293583E0,3.765787048E-1,4.953474587E-1,2.398568791E0,2.477965470E0
1.556239584E0,4.813993278E-1,-2.282975185E-1,6.859263432E-1,8.685390135E-1
1.566185583E0,4.001931968E-1,-1.382557769E0,-5.814342972E-1,1.552316469E0
1.576131583E0,-4.265288003E-3,-2.583148432E0,-8.955613035E-1,2.733990502E0
1.586077583E0,-5.730929151E-3,-2.857878690E0,-1.008805498E0,3.030708166E0
1.596023584E0,1.119536049E-1,-2.773043777E0,-1.805908461E0,3.311134363E0
1.605970583E0,3.580975930E-1,-2.747348188E0,-2.692110127E0,3.863109225E0
1.615916583E0,7.139565794E-1,-2.304907506E0,-2.280043391E0,3.319778678E0
1.625862584E0,1.105485043E0,-1.776580582E0,-9.672604465E-1,2.305195982E0
1.635808583E0,1.209809968E0,-1.535009299E0,-4.073152151E-1,1.996446692E0
1.645754583E0,1.038115398E0,-1.251519912E0,-7.224041250E-1,1.779284516E0
1.655700583E0,1.114510586E0,-7.851571012E-1,-1.081885827E0,1.740425943E0
1.665646584E0,1.221363116E0,-1.528707755E-1,-8.196550888E-1,1.478827847E0
1.675592583E0,1.212336185E0,2.684696442E-1,-2.286349028E-1,1.262580252E0
1.685539583E0,9.267683320E-1,1.268512505E-1,2.182345334E-1,9.605295896E-1
1.695485584E0,4.083923819E-1,-4.080380040E-1,4.763381606E-1,7.484499940E-1
1.705431583E0,2.600379958E-1,-7.574056309E-1,3.675822153E-1,8.811354800E-1
1.715377583E0,4.436108926E-1,-8.349057966E-1,-3.560048014E-1,1.010246372E0
1.725323583E0,3.681672658E-1,-7.501784724E-1,-9.270737759E-1,1.248110837E0
1.735269584E0,3.414211877E-1,-5.976614535E-1,-8.402940059E-1,1.086214370E0
1.745215583E0,2.161833667E-1,-4.776695716E-1,-7.273398328E-1,8.966195961E-1
1.755161583E0,-1.259011511E-2,-6.464552987E-1,-2.771493242E-1,7.034733201E-1
1.765108583E0,-2.350575211E-1,-1.257358357E0,9.949119294E-1,1.620509742E0
1.775054583E0,-5.925134917E-1,-1.457449492E0,1.431132343E0,2.126821817E0
1.785000583E0,-6.279335122E-1,-1.384185634E0,5.995191139E-1,1.633919683E0
1.794946583E0,-5.257085047E-1,-1.487971957E0,-1.317751908E-1,1.583601806E0
1.804892584E0,-2.293765856E-1,-1.374848800E0,-2.608641708E-1,1.418052522E0
1.814838583E0,-1.516662856E-1,-1.032097882E0,-4.030889207E-1,1.118351187E0
1.824784583E0,-2.670692726E-1,-9.802348334E-1,-6.991713099E-1,1.233299171E0
1.834730583E0,-1.572858435E-1,-9.353399116E-1,-1.119830529E0,1.467521721E0
1.844677584E0,7.060416056E-2,-7.792011273E-1,-1.324804235E0,1.538585586E0
1.854623583E0,1.652004337E-1,-6.056627834E-1,-9.013716817E-1,1.098448678E0
1.864569583E0,1.940444561E-1,-3.415247566E-1,-1.193334854E-1,4.105275764E-1
1.874515584E0,-2.007078334E-1,3.150362849E-2,5.767873321E-1,6.115224767E-1
1.884461583E0,-3.909941013E-1,-5.538950443E-2,5.407909955E-1,6.696262280E-1
1.894407583E0,-3.558629699E-1,-8.266068435E-1,-1.509518655E-1,9.125260504E-1
1.904353583E0,-6.431859742E-1,-1.344663718E0,-1.463562463E-1,1.497741254E0
1.914300584E0,-2.772539711E-1,-8.451395935E-1,1.953022653E-1,9.106446463E-1
1.924246583E0,1.737481493E-1,-3.390361816E-1,-2.514156550E-1,4.564469119E-1
1.934192583E0,4.304955879E-1,-3.444770157E-2,-4.574658336E-1,6.291169083E-1
1.944138583E0,2.268969824E-1,-2.094180286E-1,-4.057518889E-1,5.098752266E-1
1.954084583E0,-1.562760294E-1,-6.210450536E-1,-3.324987021E-1,7.215778148E-1
1.964030583E0,-3.314990840E-1,-8.638612086E-1,-2.670686513E-1,9.630542533E-1
1.973976583E0,-3.001658836E-1,-8.351133728E-1,-2.653918160E-1,9.262541331E-1
1.983922584E0,-2.624318093E-1,-7.075902772E-1,-3.147322297E-1,8.176862671E-1
1.993869583E0,-1.835182619E-1,-5.591867745E-1,-3.559056911E-1,6.877773347E-1
2.003815583E0,-3.986477229E-2,-3.654188186E-1,-2.916316348E-1,4.692218276E-1
2.013761583E0,4.288862789E-2,-4.932418764E-2,-1.824753745E-1,1.938287187E-1
2.023707584E0,1.511416442E-1,2.156055522E-1,4.025807977E-2,2.663649071E-1
2.033653583E0,5.042078542E-1,3.184785408E-1,4.645905197E-2,5.981743765E-1
2.043599583E0,4.986222284E-1,2.876543587E-1,-7.387956977E-2,5.803682862E-1
2.053545584E0,8.406298005E-2,1.547833997E-1,-9.363263369E-2,1.994782082E-1
2.063491583E0,-2.284702306E-1,-3.670063376E-2,-8.724279642E-2,2.472991879E-1
2.073438583E0,-4.238981014E-1,-1.612229383E-1,-8.761774912E-2,4.619083309E-1
2.083384583E0,-5.831135444E-1,-2.713681090E-1,4.913327605E-2,6.450396384E-1
2.093330584E0,-5.818152798E-1,-3.520643628E-1,1.902838925E-1,7.061630796E-1
2.103276583E0,-4.431987005E-1,-2.275952679E-1,3.783060819E-1,6.255718869E-1
2.113222583E0,-2.792617039E-1,-4.045805454E-2,5.041349468E-1,5.777335009E-1
2.123168583E0,-1.297367418E-2,4.628305078E-2,1.725659519E-1,1.791352695E-1
2.133114584E0,1.726483611E-2,-1.010983586E-3,-3.885161975E-1,3.889009287E-1
2.143060583E0,1.526433919E-2,-5.336695254E-2,-9.201871446E-1,9.218597576E-1
2.153007583E0,1.855001026E-1,5.477963984E-2,-1.341398633E0,1.355271703E0
2.162953584E0,2.477852650E-1,1.802573794E-1,-1.300925376E0,1.336524259E0
2.172899583E0,2.065455108E-1,1.679554224E-1,-8.822800840E-1,9.215683472E-1
2.182845583E0,3.191995025E-2,1.038465500E-2,-3.005059540E-1,3.023748546E-1
2.192791583E0,-4.089597080E-1,-2.295476532E-1,1.966903943E-1,5.085541063E-1
2.202737584E0,-7.457035983E-1,-4.800686842E-1,4.948834822E-1,1.015603003E0
2.212683583E0,-1.062319728E0,-6.420745647E-1,8.001981863E-1,1.476854796E0
2.222630583E0,-1.131054771E0,-7.231152195E-1,8.407237762E-1,1.583981371E0
2.232576584E0,-1.119723525E0,-5.618419951E-1,3.095697230E-1,1.290457521E0
2.242522583E0,-1.137254135E0,5.869762516E-1,-8.249743009E-1,1.522652516E0
2.252468583E0,-4.432647740E-1,2.861112785E0,-2.316167489E0,3.707705742E0
2.262414583E0,1.716176651E0,5.949496903E0,-3.023620942E0,6.890867819E0
2.272360584E0,4.522621625E0,9.380198075E0,-1.954456390E0,1.059538211E1
2.282306583E0,6.150862731E0,1.224039285E1,2.241313773E-1,1.370075050E1
2.292252583E0,5.409938647E0,1.401337037E1,2.833967087E0,1.528637808E1
2.302199584E0,2.407186856E0,1.480918578E1,4.723317654E0,1.572947112E1
2.312145583E0,-3.644596194E-1,1.631466255E1,5.601544887E0,1.725335764E1
2.322091583E0,-2.398221467E0,1.981586769E1,6.533197544E0,2.100244626E1
2.332037583E0,-3.624396622E0,2.436101133E1,8.093905356E0,2.592501548E1
2.341983584E0,-3.641160297E0,2.796454976E1,1.057539234E1,3.011831693E1
2.351929583E0,-2.306738269E0,2.925424907E1,1.254375224E1,3.191359977E1
2.361875583E0,-3.886720258E-1,2.798867304E1,1.306116651E1,3.088868652E1
2.371821583E0,1.376915790E0,2.596974174E1,1.312362179E1,2.912993017E1
2.381768584E0,2.342695283E0,2.322802442E1,1.350156242E1,2.696889926E1
2.391714583E0,2.716599143E0,1.878776697E1,1.331839020E1,2.318921336E1
2.401660583E0,2.593502097E0,1.276991904E1,1.220934296E1,1.785679537E1
2.411606584E0,2.429727726E0,5.834638876E0,1.041656325E1,1.218406245E1
2.421552583E0,1.877630993E0,-1.652756435E0,7.894094303E0,8.280931520E0
2.431498583E0,1.971315667E-3,-9.578771857E0,4.566443875E0,1.061156368E1
2.441444583E0,-2.768680585E0,-1.762247887E1,1.769009022E0,1.792614701E1
2.451390584E0,-4.857253684E0,-2.438506677E1,-7.153069208E-1,2.487440570E1
2.461337583E0,-5.976481218E0,-2.775350972E1,-2.583690469E0,2.850703572E1
2.471283583E0,-6.595860985E0,-2.929052052E1,-3.663708038E0,3.024669785E1
2.481229583E0,-5.012095848E0,-3.007906199E1,-4.903922943E0,3.088558782E1
2.491175583E0,-2.362704017E0,-2.762048088E1,-5.769941189E0,2.831546496E1
2.501121583E0,-2.646598177E-1,-2.500525755E1,-5.391011794E0,2.558116413E1
2.511067583E0,1.485494784E0,-2.216866097E1,-3.758806568E0,2.253408198E1
2.521013584E0,2.560748042E0,-1.892806038E1,-1.131069024E0,1.913395457E1
2.530960583E0,2.380382927E0,-1.600854677E1,1.824918344E0,1.628711514E1
2.540906583E0,1.165274066E0,-1.429068393E1,3.135246043E0,1.467689608E1
2.550852583E0,1.069396174E-1,-1.272637482E1,2.501130123E0,1.297026230E1
2.560798584E0,-1.025392222E0,-1.063692493E1,1.213678486E0,1.075493453E1
2.570744583E0,-1.532465906E0,-8.549722713E0,5.241257000E-1,8.701776714E0
2.580690583E0,-1.826666954E0,-6.731062059E0,7.261481702E-1,7.012217893E0
2.590636584E0,-1.208338663E0,-5.025014686E0,1.195176727E0,5.304649124E0
2.600582583E0,3.403339711E-1,-3.148103485E0,1.503726110E0,3.505363744E0
2.610529583E0,1.690178030E0,-1.406203324E0,1.593260431E0,2.715251068E0
2.620475583E0,2.630979241E0,-3.818606043E-1,1.168397648E0,2.903966658E0
2.630421584E0,2.649963396E0,-2.071960866E-2,5.321936882E-1,2.702954943E0
2.640367583E0,1.788816611E0,-1.855988109E-1,3.500464886E-1,1.832169297E0
2.650313583E0,7.876369784E-1,-6.229910070E-1,4.963970339E-1,1.120223112E0
2.660259583E0,-2.160194620E-1,-1.011369503E0,3.894999915E-1,1.105098603E0
2.670205583E0,-8.738856020E-1,-1.146550112E0,3.368335354E-1,1.480442513E0
2.680152583E0,-1.016765094E0,-8.435093898E-1,5.170406288E-1,1.418679089E0
2.690098583E0,-3.413471839E-1,-5.322767186E-1,4.596063530E-1,7.817124823E-1
2.700044584E0,5.188498669E-1,-2.022440797E-1,-2.585755706E-2,5.574732868E-1
2.709990583E0,1.182481910E0,2.188057333E-1,-2.782976443E-1,1.234337472E0
2.719936583E0,1.468225618E0,5.260067493E-1,-2.018914926E-1,1.572618752E0
2.729882583E0,1.454840172E0,7.343067902E-1,1.035857642E-1,1.632941027E0
2.739828584E0,1.146814918E0,7.468835664E-1,3.678015590E-1,1.417144137E0
2.749774583E0,6.736235091E-1,5.152852947E-1,4.024802256E-1,9.387640273E-1
2.759721583E0,7.982689706E-1,3.505160201E-1,1.378083479E-1,8.826584677E-1
2.769667584E0,1.293146386E0,4.349065447E-1,6.852959585E-4,1.364320984E0
2.779613583E0,1.511040393E0,3.731564391E-1,2.656401765E-1,1.578940626E0
2.789559583E0,1.331171853E0,5.911535025E-4,4.022744036E-1,1.390627034E0
2.799505583E0,6.746397552E-1,-3.862799299E-1,3.086300755E-1,8.364230431E-1
2.809451584E0,1.132042877E-2,-8.596974063E-1,1.363827968E-1,8.705217112E-1
2.819397583E0,-1.923895844E-1,-1.253354183E0,-1.288714635E-1,1.274565932E0
2.829343583E0,-1.545532387E-1,-1.345184705E0,-4.692215145E-1,1.433030853E0
2.839290584E0,3.171577279E-2,-1.244386894E0,-6.930061519E-1,1.424697216E0
2.849236583E0,1.124844681E-1,-1.153510637E0,-9.078574133E-1,1.472224381E0
2.859182583E0,1.407878058E-1,-1.203058773E0,-8.632069051E-1,1.487379501E0
2.869128583E0,2.381763345E-1,-1.209335759E0,-5.670185351E-1,1.356735407E0
2.879074584E0,1.825806244E-1,-1.050621276E0,-2.785251009E-1,1.102141998E0
2.889020583E0,9.019056056E-4,-1.029736192E0,-4.273367393E-1,1.114887495E0
2.898966583E0,-1.971925970E-1,-1.134125363E0,-9.203786409E-1,1.473846024E0
2.908913583E0,-2.894961769E-1,-1.282348187E0,-9.668382776E-1,1.631870450E0
2.918859583E0,-2.212954047E-1,-1.242232779E0,-3.049895990E-1,1.298126569E0
2.928805583E0,-2.717168589E-1,-6.890744841E-1,9.209715486E-2,7.464151539E-1
2.938751583E0,4.027122138E-1,-6.796183670E-1,-5.545896935E-1,9.652087754E-1
2.948697584E0,8.139414820E-1,-2.912872338E-1,-1.096625415E0,1.396401192E0
2.958643583E0,5.299226661E-1,5.808524626E-1,-1.842001569E0,2.002792400E0
2.968589583E0,9.557121225E-1,8.255397266E-1,-2.252222339E0,2.582132252E0
2.978536583E0,7.642899234E-1,3.512562776E-1,-2.441172774E0,2.582023348E0
2.988482584E0,1.157527967E-1,-1.065984836E0,-2.586833932E0,2.800255734E0
2.998428583E0,8.588488291E-1,1.872044563E-2,-2.677506121E0,2.811940752E0
3.008374583E0,2.203451590E-1,6.781156325E-1,-1.979491244E0,2.103991061E0
3.018320584E0,5.009794968E-1,8.869167799E-1,-1.138125882E0,1.527393975E0
3.028266583E0,8.571288706E-1,7.382986844E-1,-6.015358186E-1,1.281249464E0
3.038212583E0,1.001368425E0,1.126576608E0,-8.173354983E-2,1.509501225E0
3.048158583E0,1.182490534E0,1.761172584E0,1.430088615E-1,2.126138346E0
3.058105584E0,1.473427008E0,1.582668784E0,4.480870458E-1,2.208304696E0
3.068051583E0,1.635248702E0,3.926855546E-1,5.319081978E-1,1.763849935E0
3.077997583E0,1.561783115E0,-1.027493200E0,1.193138972E-1,1.873271091E0
3.087943583E0,7.474921884E-1,-2.620699251E0,4.685365131E-1,2.765200825E0
3.097889583E0,-5.389159396E-2,-3.612667692E0,1.923486612E0,4.093173940E0
3.107835583E0,-5.769332202E-1,-3.066278719E0,9.524213827E-1,3.262211460E0
3.117781583E0,-5.479316153E-1,-2.988818314E0,4.241839206E-1,3.068093214E0
3.127728584E0,-1.243303989E0,-2.205907128E0,8.531093484E-1,2.672007977E0
3.137674583E0,-2.133127274E0,-4.170737064E-1,8.016196445E-1,2.316630419E0
3.147620583E0,-1.489008084E0,1.597359914E-1,2.727810887E-1,1.522192558E0
3.157566583E0,-2.783723424E-1,-7.148554426E-1,4.686856171E-1,8.989859135E-1
3.167512584E0,5.600495312E-1,-1.310324190E0,2.238718487E0,2.653764387E0
3.177458583E0,3.682341798E-1,-1.243853627E0,3.809281488E0,4.024101603E0
3.187404583E0,-1.924302445E0,-1.902713209E0,2.065440636E0,3.404306461E0
3.197351584E0,-2.225291379E0,-8.832710409E-1,2.740237974E0,3.638817611E0
3.207297583E0,-1.137056499E0,5.651521039E-1,2.208748291E0,2.547717291E0
3.217243583E0,-1.646643025E0,-1.453314341E0,2.946716022E-1,2.215939344E0
3.227189583E0,-1.304407831E-1,-1.080873601E0,-2.985447979E-1,1.128907231E0
3.237135584E0,8.628725175E-1,5.618303007E-1,2.465320605E-1,1.058763583E0
3.247081583E0,1.636935623E0,1.695752181E0,-5.357277453E-1,2.417051491E0
3.257027583E0,1.869941612E0,2.589460502E0,-1.574746976E0,3.561153656E0
3.266973583E0,1.871352545E0,3.540729983E0,-6.940416938E-1,4.064532326E0
3.276920583E0,2.233993059E0,4.255763766E0,5.777332655E-1,4.841076940E0
3.286866583E0,2.011213851E0,3.556570090E0,1.006417788E0,4.207974420E0
3.296812583E0,6.371532556E-1,1.619236102E0,1.349421013E0,2.202005198E0
3.306758584E0,-1.702340531E0,1.301631135E-1,2.625472041E0,3.131774123E0
3.316704583E0,-4.814596637E-1,-9.265451145E-1,2.268210965E-1,1.068520972E0
3.326650583E0,-3.422078575E-1,-1.055725311E0,-9.494448575E-1,1.460516240E0
3.336596583E0,-6.612427609E-1,-1.413453287E-1,-3.948887855E-1,7.830438325E-1
3.346543584E0,-3.556682210E-1,3.755719239E-1,2.448983777E0,2.503013323E0
3.356489583E0,1.580054165E-1,1.775980657E-1,3.471417381E0,3.479546726E0
3.366435583E0,1.101522312E0,5.525618792E-4,1.715483318E0,2.038684557E0
3.376381584E0,1.854486106E0,2.492399061E-1,-6.301778197E-2,1.872220737E0
3.386327583E0,1.519993649E0,4.526031429E-1,-7.749279821E-1,1.765146928E0
3.396273583E0,8.381841843E-1,4.442135578E-1,1.439797917E-1,9.594835028E-1
3.406219583E0,-2.519071683E-1,2.046344215E-1,8.264907762E-1,8.879298796E-1
3.416166584E0,-1.559395550E0,3.323610002E-1,4.850221530E-1,1.666560772E0
3.426112583E0,-1.490631271E0,9.230005324E-1,-8.453585717E-1,1.946417911E0
3.436058583E0,-9.945995419E-1,8.364915615E-1,-2.062794771E0,2.438046072E0
3.446004584E0,-8.703633124E-1,3.588816315E-1,-1.561441345E0,1.823301235E0
3.455950583E0,-7.769147929E-2,2.938459754E-2,-5.427935207E-1,5.491122168E-1
3.465896583E0,-3.603473823E-1,-1.207214389E0,-9.807666376E-1,1.596596385E0
3.475842583E0,-3.722431405E-1,-9.965497345E-1,2.528336048E-3,1.063805772E0
3.485788584E0,8.776826925E-2,4.318168759E-3,2.087879326E0,2.089727733E0
3.495735583E0,4.996149760E-1,-2.569202238E-1,2.031211036E0,2.107472751E0
3.505681583E0,6.872907179E-1,-4.724234498E-1,1.208936979E0,1.468700469E0
3.515626875E0,3.654239349E-1,-6.146148705E-1,3.418434298E-1,7.925547437E-1
3.525572875E0,8.663115939E-2,-5.895449334E-1,-2.162452376E-1,6.339007723E-1
3.535518875E0,-2.343627987E-1,-5.952307659E-1,-3.815069208E-1,7.448309317E-1
3.545464875E0,-4.212599473E-1,-5.126025921E-1,-1.836166048E-1,6.884304019E-1
3.555410875E0,-5.013814929E-1,-3.989391518E-1,-2.498924553E-1,6.877369319E-1
3.565357875E0,-1.531274317E-1,-3.335672808E-1,-3.247983576E-1,4.901113284E-1
3.575303875E0,2.816251302E-1,-2.829818487E-1,-3.632781529E-1,5.397800080E-1
3.585249875E0,6.247310653E-1,-1.377440286E-1,-8.834850490E-2,6.458078504E-1
3.595195875E0,6.856331053E-1,8.760883212E-3,8.834031880E-2,6.913562903E-1
3.605141875E0,8.559309954E-1,2.352627218E-1,-1.256343719E-1,8.965212839E-1
3.615087875E0,1.233762064E0,1.778611904E-1,-6.637408376E-2,1.248282401E0
3.625033875E0,1.298426568E0,-5.045386970E-2,3.503189689E-1,1.345801072E0
3.634980875E0,1.118933420E0,-1.816443390E-1,7.119570509E-1,1.338614771E0
3.644926875E0,2.495947955E-1,-4.461039627E-1,8.974452764E-1,1.032818634E0
3.654872875E0,-5.101372233E-1,-6.306824344E-1,7.042801684E-1,1.074248982E0
3.664818875E0,-5.837121896E-1,-4.567570049E-1,-2.267807873E-1,7.750976760E-1
3.674764875E0,-2.618179248E-1,-1.020689964E-1,-1.163941485E0,1.197383183E0
3.684710875E0,7.693254724E-2,1.272517848E-1,-1.407050001E0,1.414885628E0
3.694656875E0,3.695471721E-1,2.808248109E-1,-9.124387068E-1,1.023705075E0
3.704603875E0,7.361599191E-1,2.855423445E-1,-5.079195571E-1,9.388546924E-1
3.714549875E0,8.521240926E-1,1.283405364E-1,-2.447550917E-1,8.958190762E-1
3.724495875E0,6.095100686E-1,-9.681644261E-2,-4.263826199E-3,6.171662073E-1
3.734441875E0,2.238255314E-1,-3.422755390E-1,7.562087059E-2,4.158953344E-1
3.744387875E0,-1.292999914E-1,-4.314812458E-1,1.023970252E-1,4.619304103E-1
3.754333875E0,-3.302717535E-1,-5.538061666E-1,1.499301559E-1,6.620118979E-1
3.764279875E0,-2.529099841E-1,-6.769046742E-1,6.201611739E-2,7.252650528E-1
3.774225875E0,-1.090919410E-1,-6.056341320E-1,-1.426890371E-1,6.317071432E-1
3.784172875E0,2.021418996E-3,-4.128192723E-1,-1.891837754E-1,4.541082895E-1
3.794118875E0,3.282649160E-1,-9.395423055E-2,-1.060942380E-1,3.575489335E-1
3.804064875E0,4.308758031E-1,-9.098852277E-3,5.228211862E-1,6.775534957E-1
3.814010875E0,3.101821458E-1,-3.206829411E-1,9.377530575E-1,1.038475473E0
3.823956875E0,-9.070274010E-3,-5.816658103E-1,8.635881436E-1,1.041250146E0
3.833902875E0,-4.394841105E-1,-7.451831961E-1,5.484641504E-1,1.024332565E0
3.843848875E0,-6.372490038E-1,-6.595150548E-1,2.075621041E-1,9.402810364E-1
3.853795875E0,-4.217518444E-1,-4.396006894E-1,-9.534880975E-2,6.166155852E-1
3.863741875E0,1.658629963E-1,-1.467013782E-1,-1.771870247E-1,2.835966672E-1
3.873687875E0,4.884436512E-1,7.456661761E-2,-2.663219802E-1,5.613063139E-1
3.883633875E0,3.590794867E-1,2.585054040E-2,-2.906288373E-1,4.626785593E-1
3.893579875E0,3.541658521E-2,-1.111941612E-1,-1.915313959E-1,2.242827492E-1
3.903525875E0,-3.125447132E-1,-1.521574152E-1,-2.353486028E-3,3.476228066E-1
3.913471875E0,-3.425068695E-1,-9.718891025E-2,2.092163179E-1,4.129504905E-1
3.923418875E0,-1.746792819E-1,-3.131242454E-2,2.546889446E-1,3.104187139E-1
3.933364875E0,-9.602268308E-2,8.894959867E-2,1.002288777E-1,1.648581654E-1
3.943310875E0,3.038651794E-2,2.055682218E-1,3.560428997E-2,2.108300257E-1
3.953256875E0,1.637666964E-1,2.493293685E-1,2.040035983E-2,2.989997316E-1
3.963202875E0,1.619862923E-1,2.085894781E-1,1.007720840E-1,2.826732074E-1
3.973148875E0,2.337884925E-2,3.795836985E-2,3.074904531E-1,3.107053060E-1
3.983094875E0,-1.850748273E-1,-5.423234046E-2,3.623788512E-1,4.105024607E-1
3.993041875E0,-2.732743744E-1,-5.367977858E-2,2.419934517E-1,3.689461112E-1
4.002987875E0,-4.160771216E-1,-1.018421245E-1,1.438403356E-1,4.518650590E-1
4.012933875E0,-3.714157230E-1,-1.423972428E-2,1.589624047E-1,4.042541962E-1
4.022879875E0,1.776300792E-1,1.417809463E-1,3.333661366E-1,4.034690357E-1
4.032825875E0,5.244389646E-1,5.080645680E-3,4.575411165E-1,6.959927541E-1
4.042771875E0,3.853416710E-1,-1.561077940E-1,4.325676584E-1,5.999771878E-1
4.052717875E0,3.106837638E-2,-2.452673078E-1,2.246500254E-1,3.340492930E-1
4.062664875E0,-1.822928683E-1,-3.485601264E-1,1.126653115E-1,4.091678433E-1
4.072610875E0,-3.574511102E-1,-4.126906335E-1,1.187160194E-1,5.587292264E-1
4.082556875E0,-1.784853076E-1,-3.871342081E-1,2.109757268E-1,4.756476190E-1
4.092502875E0,3.720410096E-1,-4.609512126E-1,2.425120997E-1,6.400801917E-1
4.102448875E0,4.129473263E-1,-6.080443543E-1,-4.576012697E-3,7.350267825E-1
4.112394875E0,-1.440689617E-1,-7.250798839E-1,-3.376930761E-1,8.127320084E-1
4.122340875E0,-5.568908653E-1,-6.084577525E-1,-4.537907124E-1,9.414214163E-1
4.132287875E0,-4.858402881E-1,-2.957469052E-1,-2.005828675E-1,6.031090317E-1
4.142233875E0,1.578857861E-1,-4.397486240E-1,3.808712554E-1,6.028015320E-1
4.152179875E0,5.608334601E-1,-6.908684099E-1,7.885683668E-1,1.188979982E0
4.162125875E0,5.079803316E-1,-6.752089816E-1,9.830128455E-1,1.296250532E0
4.172071875E0,3.299508875E-1,-4.945516527E-1,9.137631011E-1,1.090143078E0
4.182017875E0,-3.544947580E-3,-6.093184626E-1,6.032315111E-1,8.574204404E-1
4.191963875E0,-3.842256568E-1,-9.690982264E-1,7.932215810E-2,1.045501187E0
4.201910875E0,-2.542248036E-1,-1.093968440E0,-4.493035591E-1,1.209657343E0
4.211856875E0,3.137228541E-1,-9.602227378E-1,-1.032563320E0,1.444519555E0
4.221802875E0,5.613894206E-1,-8.778752303E-1,-1.408169743E0,1.751789093E0
4.231748875E0,1.426124934E-1,-7.118914890E-1,-1.521408091E0,1.685767005E0
4.241694875E0,-4.192347642E-1,-1.673484814E-1,-1.093979038E0,1.183449804E0
4.251640875E0,-6.669364140E-1,3.473111612E-1,-2.333046354E-2,7.523121251E-1
4.261586875E0,-8.085089801E-1,1.255111272E0,7.907645810E-1,1.689467282E0
4.271533875E0,-1.093744857E0,3.215051181E0,7.132445347E-1,3.470093612E0
4.281479875E0,-1.988842404E0,7.075693442E0,-1.104410398E-1,7.350723026E0
4.291425875E0,-3.615922545E0,1.269187625E1,-9.839940083E-1,1.323355065E1
4.301371875E0,-5.524676805E0,1.929702320E1,-6.993363476E-1,2.008447732E1
4.311317875E0,-5.644011460E0,2.438751559E1,1.619780477E0,2.508444679E1
4.321263875E0,-3.859970416E0,2.658641951E1,5.669436908E0,2.745686779E1
4.331209875E0,-2.011410902E0,2.725509072E1,9.716237558E0,2.900501708E1
4.341156875E0,-5.826317338E-1,2.769787229E1,1.165032225E1,3.005397807E1
4.351102875E0,6.256141410E-1,2.747156633E1,1.122832870E1,2.968423344E1
4.361048875E0,1.336333190E0,2.552932010E1,9.399698539E0,2.723758990E1
4.370994875E0,1.359623673E0,2.169158197E1,7.409978760E0,2.296260199E1
4.380940875E0,6.386721430E-1,1.685543644E1,5.715581964E0,1.780959059E1
4.390886875E0,4.156800956E-1,1.182953473E1,3.957710134E0,1.248095154E1
4.400832875E0,1.677671128E0,6.972061484E0,1.834015588E0,7.401880500E0
4.410779875E0,3.913860402E0,3.006327801E0,-4.619148338E-1,4.956780750E0
4.420725875E0,5.871263496E0,-4.750622982E-1,-1.849469048E0,6.173974003E0
4.430671875E0,6.370851941E0,-4.326462450E0,-2.016892082E0,7.960771662E0
4.440617875E0,5.264990264E0,-7.645739080E0,-1.694473395E0,9.436561272E0
4.450563875E0,4.136601604E0,-1.027237676E1,-1.762341150E0,1.121334221E1
4.460509875E0,3.653297070E0,-1.246692568E1,-1.783986957E0,1.311310126E1
4.470455875E0,1.230960078E0,-1.513502889E1,-1.595262225E0,1.526856980E1
4.480402875E0,-3.112004822E0,-1.774292800E1,-6.685753155E-1,1.802617710E1
4.490348875E0,-6.218164768E0,-1.927090719E1,1.211230550E0,2.028547551E1
4.500294875E0,-5.971119906E0,-1.935942000E1,3.170633099E0,2.050595840E1
4.510240875E0,-3.827555499E0,-1.840381891E1,4.630419431E0,1.935953294E1
4.520187250E0,-9.046588401E-1,-1.636821603E1,5.189191638E0,1.719490079E1
4.530133250E0,1.943146998E0,-1.317059598E1,6.388604087E0,1.476667467E1
4.540079250E0,4.007283413E0,-1.109351295E1,7.964052145E0,1.423202293E1
4.550026250E0,4.262317033E0,-1.042435058E1,8.582875257E0,1.415980858E1
4.559972250E0,2.353317482E0,-1.050076433E1,7.438393305E0,1.308181370E1
4.569918250E0,7.307304870E-1,-1.049463411E1,5.542158226E0,1.189061941E1
4.579864250E0,-1.993470767E-1,-9.464975100E0,4.650301718E0,1.054754943E1
4.589810250E0,-3.921040490E-1,-7.655425578E0,5.505084540E0,9.437438326E0
4.599756250E0,3.690370756E-1,-6.270917178E0,6.579780557E0,9.096928207E0
4.609702250E0,1.027474781E0,-5.869422208E0,5.474603004E0,8.091792109E0
4.619649250E0,3.080056659E-1,-5.880895030E0,1.661506793E0,6.118855993E0
4.629595250E0,-9.828609641E-1,-5.451204786E0,-2.922190461E0,6.262654899E0
4.639541250E0,-1.236914444E0,-4.634849866E0,-5.797426026E0,7.524755089E0
4.649487250E0,-8.764259248E-1,-3.721417133E0,-5.977126166E0,7.095287526E0
4.659433250E0,-7.182963098E-1,-2.206981262E0,-4.421993675E0,4.994070878E0
4.669379250E0,-1.437106736E-2,-1.203094441E0,-2.458857093E0,2.737447893E0
4.679325250E0,1.262469700E0,-8.264548159E-1,-1.343953866E0,2.020660610E0
4.689272250E0,1.974034622E0,-7.163979381E-1,-1.418724552E0,2.534327929E0
4.699218250E0,1.418844420E0,-7.373485118E-1,-2.324891535E0,2.821687964E0
4.709164250E0,8.528941709E-1,-7.438658184E-1,-2.624854867E0,2.858431020E0
4.719110250E0,1.084030951E0,-6.303473890E-1,-2.071620559E0,2.421584744E0
4.729056250E0,2.224206575E0,3.026694238E-2,-1.627240940E0,2.756070400E0
4.739002250E0,3.051889890E0,6.096856678E-1,-2.033774455E0,3.717793304E0
4.748949250E0,2.790398021E0,7.763862777E-1,-2.767646797E0,4.006116020E0
4.758895250E0,2.152765878E0,4.177449667E-1,-3.196164089E0,3.876129083E0
4.768841250E0,1.781798637E0,-2.979431194E-1,-3.184558243E0,3.661282247E0
4.778787250E0,1.286109701E0,-1.032752770E0,-2.425924405E0,2.933558533E0
4.788733250E0,4.063380723E-1,-1.454434083E0,-1.108043858E0,1.873032386E0
4.798679250E0,-8.307501805E-1,-1.052791178E0,-8.428469002E-2,1.343733246E0
4.808625250E0,-1.177071773E0,-8.614854848E-1,3.604191568E-1,1.502516945E0
4.818572250E0,-6.541068189E-1,-9.512893617E-1,4.112870094E-1,1.225546484E0
4.828518250E0,-3.275493995E-1,-8.124372858E-1,3.054731637E-1,9.277159081E-1
4.838464250E0,-5.606265052E-1,-8.188177675E-1,1.686717063E-1,1.006585694E0
4.848410250E0,-9.732122543E-1,-7.153115255E-1,-2.410581896E-1,1.231633761E0
4.858356250E0,-8.652154237E-1,-5.239514530E-1,-4.130198318E-1,1.092569557E0
4.868302250E0,-4.499572778E-1,-6.327552724E-1,-4.874063551E-2,7.779565773E-1
4.878248250E0,-2.119856872E-1,-3.457423532E-1,7.934338349E-1,8.910740467E-1
4.888195250E0,-2.918647926E-1,-1.232938045E-1,1.935234838E0,1.960999821E0
4.898141250E0,-4.752190036E-1,-3.039879709E-1,2.669200736E0,2.728163183E0
4.908087250E0,-9.327386315E-1,-3.535074556E-1,2.692811208E0,2.871619939E0
4.918033250E0,-1.209826633E0,-5.268195122E-1,2.064883397E0,2.450502545E0
4.927979250E0,-1.290832935E0,-4.283699423E-1,1.160703882E0,1.788011179E0
4.937925250E0,-1.179013122E0,2.476009315E-1,3.231346786E-1,1.247314789E0
4.947871250E0,-2.906484255E-1,8.622619951E-1,-3.374264431E-1,9.704786757E-1
4.957818250E0,6.643814000E-1,1.079140486E0,-6.966013125E-1,1.446098275E0
4.967764250E0,7.821703434E-1,7.882882851E-1,-3.831341279E-1,1.174725767E0
4.977710250E0,3.363616651E-1,6.458781785E-1,3.709093541E-1,8.172340792E-1
4.987656250E0,-3.154280484E-3,4.002524364E-1,1.245329172E0,1.308073664E0
4.997602250E0,-1.124985288E-1,5.707233310E-2,1.876620887E0,1.880855955E0
5.007548250E0,-3.127592330E-1,3.320458353E-2,1.531895072E0,1.563848904E0
5.017494250E0,-5.973939434E-1,1.779570848E-1,4.870251167E-1,7.910383757E-1
5.027441250E0,-4.310820271E-1,2.200336486E-1,-8.267278808E-1,9.579799108E-1
5.037387250E0,-2.972910087E-1,2.121463394E-1,-1.659750289E0,1.699458454E0
5.047333250E0,-4.728919579E-1,2.450176316E-1,-1.526640764E0,1.616877381E0
5.057279250E0,-3.975824516E-1,2.045888132E-1,-2.641514754E-1,5.193307137E-1
5.067225250E0,5.076508775E-2,2.047934657E-1,1.162384372E0,1.181378384E0
5.077171250E0,4.029930264E-1,2.110388768E-1,1.713552859E0,1.772908398E0
5.087117250E0,2.732387795E-1,9.422437191E-2,1.109117991E0,1.146158969E0
5.097064250E0,-3.007274173E-1,4.291330040E-2,-1.670169443E-2,3.042326042E-1
5.107010250E0,-5.591022822E-1,1.591922003E-1,-7.889595455E-1,9.799972873E-1
5.116956250E0,-3.922486214E-1,1.963074017E-1,-8.383205706E-1,9.461379160E-1
5.126902250E0,-4.417450096E-1,3.740212423E-1,-1.870886815E-1,6.083031464E-1
5.136848250E0,-3.420530525E-1,2.265404302E-1,5.934719235E-1,7.214774987E-1
5.146794250E0,-2.022861797E-1,1.545506805E-1,7.114240041E-1,7.555989181E-1
5.156741250E0,-3.728602776E-1,2.167609620E-1,4.060160369E-1,5.923336251E-1
5.166687250E0,-3.348960605E-1,1.427714646E-1,1.809455967E-1,4.065468871E-1
5.176633250E0,-1.302623700E-1,1.042891842E-1,2.264170539E-1,2.812635797E-1
5.186579250E0,-2.946409044E-1,6.879190743E-2,3.194395307E-1,4.399854575E-1
5.196525250E0,-7.847643144E-1,-1.192773521E-2,4.972124282E-1,9.290949891E-1
5.206471250E0,-1.018269217E0,-4.201277071E-1,8.836674821E-1,1.412178355E0
5.216417250E0,-1.177763134E0,-5.620700365E-1,1.067601591E0,1.686066986E0
5.226364250E0,-9.199937479E-1,-3.380579424E-1,9.507107797E-1,1.365475249E0
5.236310250E0,-3.589009273E-1,-1.644622958E-1,6.970495015E-1,8.010840967E-1
5.246256250E0,1.192793986E-1,-9.347183526E-2,4.124722400E-1,4.394290702E-1
5.256202250E0,4.432145610E-1,2.012781197E-1,1.249751714E-1,5.025642467E-1
5.266148250E0,6.624000710E-1,4.062738991E-1,-1.635206017E-1,7.940852110E-1
5.276094250E0,1.023044638E0,5.981035030E-1,-2.866933689E-1,1.219237967E0
5.286040250E0,1.465513825E0,7.328748071E-1,1.166449356E-1,1.642693610E0
5.295987250E0,1.533836494E0,5.678839231E-1,6.180580035E-1,1.748468540E0
5.305933250E0,1.233910291E0,2.418086797E-1,9.641941667E-1,1.584511418E0
5.315879250E0,4.655398151E-1,2.711353898E-3,8.103053910E-1,9.345209990E-1
5.325825250E0,-2.665248603E-1,-1.943860066E-1,-4.065609974E-1,5.235582730E-1
5.335771250E0,-4.774095167E-1,-3.627062953E-1,-4.509893113E-1,7.502446682E-1
5.345717250E0,-2.117060441E-1,-5.387449086E-1,1.050042987E-1,5.882953581E-1
5.355664250E0,-1.036799043E-1,-2.728462851E-1,6.314443266E-1,6.956411111E-1
5.365610250E0,-1.039303114E-1,-1.362015331E-1,5.325766808E-1,5.594553496E-1
5.375556250E0,-6.537420988E-2,-1.038067889E-1,1.231148797E-1,1.738013531E-1
5.385502250E0,3.738855869E-3,-1.966067791E-2,1.015784150E-1,1.035311340E-1
5.395448250E0,1.471601654E-1,-1.147124308E-1,-1.524415898E-1,2.409429276E-1
5.405394250E0,1.270153380E-1,1.982381523E-2,-5.638171846E-1,5.782868642E-1